"1cP1 - RawData"
"Wavelength nm.","T%"
200.00,-0.000
201.00,0.000
202.00,0.003
203.00,0.002
204.00,-0.002
205.00,0.002
206.00,-0.001
207.00,0.001
208.00,-0.003
209.00,-0.000
210.00,0.002
211.00,-0.000
212.00,-0.002
213.00,0.001
214.00,0.000
215.00,0.001
216.00,0.001
217.00,0.000
218.00,-0.003
219.00,0.001
220.00,0.002
221.00,0.002
222.00,-0.002
223.00,0.001
224.00,0.001
225.00,0.001
226.00,-0.001
227.00,-0.002
228.00,0.001
229.00,0.002
230.00,0.000
231.00,-0.000
232.00,-0.000
233.00,0.002
234.00,0.001
235.00,-0.001
236.00,-0.001
237.00,0.002
238.00,0.002
239.00,-0.001
240.00,-0.001
241.00,0.000
242.00,-0.001
243.00,0.002
244.00,-0.000
245.00,0.000
246.00,0.001
247.00,-0.000
248.00,-0.001
249.00,-0.001
250.00,0.001
251.00,0.001
252.00,-0.000
253.00,-0.002
254.00,-0.000
255.00,-0.000
256.00,-0.000
257.00,-0.000
258.00,-0.003
259.00,0.001
260.00,-0.001
261.00,0.000
262.00,-0.001
263.00,0.000
264.00,0.001
265.00,-0.001
266.00,-0.000
267.00,0.001
268.00,-0.000
269.00,-0.001
270.00,-0.001
271.00,0.001
272.00,-0.001
273.00,-0.000
274.00,-0.001
275.00,0.000
276.00,0.000
277.00,0.001
278.00,-0.000
279.00,0.001
280.00,-0.000
281.00,0.000
282.00,0.000
283.00,-0.001
284.00,-0.003
285.00,0.001
286.00,0.002
287.00,-0.001
288.00,-0.000
289.00,-0.000
290.00,-0.000
291.00,0.000
292.00,-0.001
293.00,0.000
294.00,-0.001
295.00,0.000
296.00,-0.000
297.00,-0.001
298.00,0.001
299.00,0.000
300.00,0.000
301.00,-0.000
302.00,-0.000
303.00,0.001
304.00,-0.000
305.00,0.001
306.00,-0.000
307.00,0.001
308.00,0.002
309.00,0.004
310.00,0.007
311.00,0.011
312.00,0.017
313.00,0.027
314.00,0.039
315.00,0.060
316.00,0.080
317.00,0.112
318.00,0.152
319.00,0.198
320.00,0.264
321.00,0.346
322.00,0.434
323.00,0.549
324.00,0.668
325.00,0.808
326.00,0.947
327.00,1.127
328.00,1.315
329.00,1.519
330.00,1.723
331.00,1.934
332.00,2.168
333.00,2.399
334.00,2.649
335.00,2.920
336.00,3.158
337.00,3.416
338.00,3.654
339.00,3.871
340.00,4.147
341.00,4.376
342.00,4.578
343.00,4.824
344.00,5.003
345.00,5.205
346.00,5.392
347.00,5.550
348.00,5.701
349.00,5.865
350.00,6.000
351.00,6.130
352.00,6.226
353.00,6.357
354.00,6.446
355.00,6.548
356.00,6.634
357.00,6.684
358.00,6.762
359.00,6.814
360.00,6.851
361.00,6.894
362.00,6.875
363.00,6.909
364.00,6.910
365.00,6.916
366.00,6.922
367.00,6.932
368.00,6.933
369.00,6.914
370.00,6.909
371.00,6.903
372.00,6.876
373.00,6.859
374.00,6.781
375.00,6.739
376.00,6.680
377.00,6.638
378.00,6.577
379.00,6.518
380.00,6.493
381.00,6.452
382.00,6.426
383.00,6.410
384.00,6.393
385.00,6.382
386.00,6.364
387.00,6.363
388.00,6.365
389.00,6.358
390.00,6.336
391.00,6.326
392.00,6.318
393.00,6.301
394.00,6.276
395.00,6.246
396.00,6.234
397.00,6.217
398.00,6.185
399.00,6.177
400.00,6.136
401.00,6.159
402.00,6.124
403.00,6.116
404.00,6.089
405.00,6.056
406.00,6.039
407.00,6.018
408.00,6.008
409.00,6.002
410.00,5.972
411.00,5.992
412.00,5.960
413.00,5.976
414.00,5.992
415.00,5.983
416.00,5.966
417.00,5.941
418.00,5.933
419.00,5.945
420.00,5.934
421.00,5.956
422.00,5.960
423.00,5.962
424.00,5.975
425.00,5.989
426.00,6.005
427.00,6.008
428.00,6.021
429.00,6.051
430.00,6.075
431.00,6.092
432.00,6.119
433.00,6.149
434.00,6.168
435.00,6.213
436.00,6.247
437.00,6.275
438.00,6.304
439.00,6.338
440.00,6.391
441.00,6.428
442.00,6.480
443.00,6.523
444.00,6.576
445.00,6.613
446.00,6.691
447.00,6.729
448.00,6.775
449.00,6.858
450.00,6.924
451.00,6.988
452.00,7.058
453.00,7.092
454.00,7.152
455.00,7.247
456.00,7.311
457.00,7.392
458.00,7.461
459.00,7.537
460.00,7.602
461.00,7.680
462.00,7.751
463.00,7.835
464.00,7.918
465.00,8.005
466.00,8.099
467.00,8.223
468.00,8.345
469.00,8.435
470.00,8.454
471.00,8.568
472.00,8.691
473.00,8.785
474.00,8.893
475.00,9.007
476.00,9.129
477.00,9.248
478.00,9.307
479.00,9.455
480.00,9.530
481.00,9.677
482.00,9.789
483.00,9.898
484.00,9.976
485.00,10.176
486.00,10.310
487.00,10.453
488.00,10.546
489.00,10.689
490.00,10.771
491.00,10.928
492.00,11.086
493.00,11.194
494.00,11.241
495.00,11.421
496.00,11.512
497.00,11.627
498.00,11.717
499.00,11.892
500.00,11.985
501.00,12.133
502.00,12.241
503.00,12.373
504.00,12.491
505.00,12.623
506.00,12.766
507.00,12.862
508.00,12.960
509.00,13.102
510.00,13.219
511.00,13.394
512.00,13.594
513.00,13.683
514.00,13.806
515.00,13.852
516.00,13.984
517.00,14.083
518.00,14.183
519.00,14.278
520.00,14.419
521.00,14.513
522.00,14.639
523.00,14.792
524.00,14.873
525.00,15.020
526.00,15.110
527.00,15.171
528.00,15.220
529.00,15.364
530.00,15.425
531.00,15.557
532.00,15.519
533.00,15.647
534.00,15.808
535.00,15.918
536.00,16.028
537.00,16.078
538.00,16.247
539.00,16.328
540.00,16.415
541.00,16.547
542.00,16.591
543.00,16.700
544.00,16.810
545.00,16.895
546.00,16.982
547.00,17.073
548.00,17.163
549.00,17.226
550.00,17.321
551.00,17.359
552.00,17.416
553.00,17.449
554.00,17.503
555.00,17.567
556.00,17.632
557.00,17.774
558.00,17.851
559.00,17.974
560.00,18.014
561.00,18.031
562.00,18.132
563.00,18.188
564.00,18.268
565.00,18.357
566.00,18.395
567.00,18.483
568.00,18.545
569.00,18.607
570.00,18.610
571.00,18.663
572.00,18.751
573.00,18.713
574.00,18.786
575.00,18.814
576.00,18.876
577.00,18.958
578.00,19.073
579.00,19.140
580.00,19.145
581.00,19.236
582.00,19.350
583.00,19.375
584.00,19.495
585.00,19.520
586.00,19.552
587.00,19.713
588.00,19.770
589.00,19.833
590.00,19.874
591.00,19.940
592.00,19.977
593.00,20.056
594.00,20.132
595.00,20.208
596.00,20.322
597.00,20.327
598.00,20.355
599.00,20.372
600.00,20.371
601.00,20.454
602.00,20.461
603.00,20.606
604.00,20.641
605.00,20.683
606.00,20.808
607.00,20.872
608.00,20.895
609.00,21.117
610.00,21.067
611.00,21.038
612.00,21.177
613.00,21.214
614.00,21.373
615.00,21.409
616.00,21.442
617.00,21.478
618.00,21.503
619.00,21.563
620.00,21.618
621.00,21.777
622.00,21.839
623.00,21.885
624.00,22.064
625.00,22.118
626.00,22.213
627.00,22.349
628.00,22.392
629.00,22.508
630.00,22.672
631.00,22.698
632.00,22.827
633.00,22.943
634.00,23.039
635.00,23.098
636.00,23.186
637.00,23.243
638.00,23.373
639.00,23.472
640.00,23.619
641.00,23.786
642.00,23.911
643.00,24.009
644.00,24.111
645.00,24.138
646.00,24.284
647.00,24.479
648.00,24.580
649.00,24.824
650.00,24.922
651.00,24.944
652.00,25.044
653.00,25.220
654.00,25.376
655.00,25.684
656.00,25.617
657.00,26.458
658.00,26.525
659.00,26.352
660.00,26.185
661.00,26.478
662.00,26.639
663.00,26.822
664.00,26.917
665.00,26.790
666.00,27.194
667.00,27.547
668.00,27.582
669.00,27.463
670.00,27.879
671.00,27.705
672.00,28.038
673.00,28.211
674.00,28.205
675.00,28.425
676.00,28.601
677.00,28.844
678.00,29.273
679.00,29.314
680.00,29.666
681.00,29.998
682.00,30.393
683.00,30.370
684.00,30.307
685.00,30.458
686.00,30.484
687.00,30.683
688.00,30.941
689.00,31.146
690.00,31.140
691.00,31.588
692.00,31.601
693.00,31.590
694.00,32.064
695.00,32.122
696.00,32.334
697.00,32.562
698.00,32.820
699.00,32.766
700.00,32.949
701.00,33.275
702.00,33.566
703.00,33.890
704.00,34.199
705.00,34.187
706.00,34.087
707.00,34.118
708.00,34.253
709.00,34.497
710.00,34.424
711.00,34.729
712.00,35.371
713.00,35.398
714.00,35.372
715.00,35.880
716.00,36.127
717.00,36.011
718.00,36.238
719.00,36.609
720.00,37.053
721.00,40.425
722.00,40.623
723.00,40.704
724.00,40.823
725.00,40.992
726.00,41.156
727.00,41.237
728.00,41.363
729.00,41.526
730.00,41.691
731.00,41.860
732.00,41.957
733.00,42.191
734.00,42.280
735.00,42.420
736.00,42.516
737.00,42.703
738.00,42.863
739.00,43.029
740.00,43.136
741.00,43.341
742.00,43.447
743.00,43.502
744.00,43.575
745.00,43.751
746.00,43.738
747.00,43.940
748.00,43.981
749.00,44.123
750.00,44.198
751.00,44.307
752.00,44.470
753.00,44.455
754.00,44.556
755.00,44.595
756.00,44.779
757.00,44.830
758.00,44.924
759.00,45.066
760.00,45.099
761.00,45.230
762.00,45.326
763.00,45.509
764.00,45.524
765.00,45.642
766.00,45.737
767.00,45.830
768.00,45.871
769.00,45.891
770.00,46.024
771.00,46.074
772.00,46.217
773.00,46.289
774.00,46.473
775.00,46.558
776.00,46.446
777.00,46.686
778.00,46.580
779.00,46.791
780.00,46.865
781.00,46.903
782.00,46.969
783.00,46.930
784.00,47.073
785.00,47.044
786.00,47.122
787.00,47.188
788.00,47.265
789.00,47.350
790.00,47.307
791.00,47.432
792.00,47.381
793.00,47.499
794.00,47.559
795.00,47.577
796.00,47.683
797.00,47.504
798.00,47.661
799.00,47.640
800.00,47.648
801.00,47.626
802.00,47.594
803.00,47.725
804.00,47.688
805.00,47.804
806.00,47.688
807.00,47.862
808.00,47.889
809.00,47.822
810.00,47.907
811.00,47.913
812.00,48.065
813.00,48.062
814.00,48.080
815.00,48.139
816.00,48.055
817.00,48.150
818.00,48.115
819.00,48.091
820.00,48.249
821.00,48.147
822.00,48.181
823.00,48.289
824.00,48.320
825.00,48.121
826.00,48.014
827.00,48.347
828.00,48.110
829.00,48.245
830.00,48.279
831.00,50.775
832.00,50.762
833.00,50.836
834.00,50.791
835.00,50.821
836.00,50.840
837.00,50.844
838.00,50.842
839.00,50.873
840.00,50.880
841.00,50.901
842.00,50.911
843.00,50.894
844.00,50.920
845.00,50.814
846.00,50.868
847.00,50.810
848.00,50.902
849.00,50.949
850.00,50.929
851.00,50.922
852.00,50.820
853.00,50.904
854.00,50.881
855.00,50.870
856.00,50.774
857.00,50.844
858.00,50.916
859.00,50.875
860.00,50.898
861.00,50.849
862.00,50.889
863.00,50.837
864.00,50.950
865.00,50.856
866.00,50.967
867.00,50.867
868.00,50.952
869.00,50.927
870.00,50.896
871.00,50.941
872.00,50.944
873.00,50.928
874.00,50.832
875.00,50.896
876.00,50.864
877.00,50.960
878.00,50.897
879.00,50.965
880.00,50.918
881.00,50.920
882.00,50.976
883.00,50.947
884.00,50.914
885.00,50.886
886.00,50.827
887.00,50.869
888.00,50.922
889.00,50.855
890.00,50.748
891.00,50.800
892.00,50.851
893.00,50.825
894.00,50.752
895.00,50.808
896.00,50.848
897.00,50.818
898.00,50.719
899.00,50.661
900.00,50.725
901.00,50.666
902.00,50.639
903.00,50.749
904.00,50.838
905.00,50.745
906.00,50.637
907.00,50.679
908.00,50.812
909.00,50.742
910.00,50.657
911.00,50.564
912.00,50.645
913.00,50.540
914.00,50.583
915.00,50.691
916.00,50.835
917.00,50.714
918.00,50.598
919.00,50.667
920.00,50.778
921.00,50.645
922.00,50.535
923.00,50.589
924.00,50.748
925.00,50.554
926.00,50.457
927.00,50.503
928.00,50.660
929.00,50.503
930.00,50.426
931.00,50.443
932.00,50.571
933.00,50.432
934.00,50.427
935.00,50.458
936.00,50.550
937.00,50.392
938.00,50.294
939.00,50.366
940.00,50.460
941.00,50.318
942.00,50.237
943.00,50.306
944.00,50.380
945.00,50.280
946.00,50.233
947.00,50.265
948.00,50.246
949.00,50.248
950.00,50.139
951.00,50.166
952.00,50.253
953.00,50.194
954.00,50.070
955.00,50.093
956.00,50.091
957.00,50.075
958.00,50.024
959.00,50.037
960.00,50.018
961.00,49.991
962.00,49.975
963.00,49.974
964.00,49.988
965.00,49.938
966.00,49.952
967.00,49.928
968.00,49.967
969.00,49.906
970.00,49.912
971.00,49.924
972.00,49.929
973.00,49.930
974.00,49.928
975.00,49.952
976.00,49.906
977.00,49.936
978.00,49.948
979.00,49.955
980.00,49.965
981.00,49.934
982.00,49.950
983.00,49.897
984.00,49.940
985.00,49.918
986.00,49.938
987.00,49.931
988.00,49.903
989.00,49.896
990.00,49.883
991.00,49.872
992.00,49.879
993.00,49.887
994.00,49.829
995.00,49.814
996.00,49.835
997.00,49.805
998.00,49.823
999.00,49.819
1000.00,49.828
1001.00,49.797
1002.00,49.775
1003.00,49.797
1004.00,49.746
1005.00,49.744
1006.00,49.736
1007.00,49.770
1008.00,49.741
1009.00,49.724
1010.00,49.741
1011.00,49.675
1012.00,49.693
1013.00,49.701
1014.00,49.686
1015.00,49.654
1016.00,49.610
1017.00,49.617
1018.00,49.590
1019.00,49.608
1020.00,49.560
1021.00,49.577
1022.00,49.560
1023.00,49.525
1024.00,49.491
1025.00,49.494
1026.00,49.511
1027.00,49.480
1028.00,49.475
1029.00,49.451
1030.00,49.469
1031.00,49.439
1032.00,49.393
1033.00,49.395
1034.00,49.399
1035.00,49.367
1036.00,49.296
1037.00,49.319
1038.00,49.300
1039.00,49.288
1040.00,49.252
1041.00,49.200
1042.00,49.216
1043.00,49.206
1044.00,49.256
1045.00,49.220
1046.00,49.210
1047.00,49.217
1048.00,49.253
1049.00,49.261
1050.00,49.305
1051.00,49.298
1052.00,49.319
1053.00,49.338
1054.00,49.349
1055.00,49.332
1056.00,49.339
1057.00,49.372
1058.00,49.345
1059.00,49.338
1060.00,49.314
1061.00,49.346
1062.00,49.323
1063.00,49.317
1064.00,49.302
1065.00,49.331
1066.00,49.308
1067.00,49.298
1068.00,49.300
1069.00,49.299
1070.00,49.251
1071.00,49.252
1072.00,49.243
1073.00,49.250
1074.00,49.246
1075.00,49.213
1076.00,49.216
1077.00,49.224
1078.00,49.218
1079.00,49.195
1080.00,49.192
1081.00,49.175
1082.00,49.173
1083.00,49.166
1084.00,49.179
1085.00,49.166
1086.00,49.165
1087.00,49.138
1088.00,49.141
1089.00,49.123
1090.00,49.135
1091.00,49.113
1092.00,49.125
1093.00,49.085
1094.00,49.091
1095.00,49.070
1096.00,49.068
1097.00,49.053
1098.00,49.060
1099.00,49.024
1100.00,49.028
1101.00,49.013
1102.00,49.016
1103.00,48.994
1104.00,49.006
1105.00,48.982
1106.00,48.980
1107.00,48.968
1108.00,48.969
1109.00,48.964
1110.00,48.975
1111.00,48.955
1112.00,48.953
1113.00,48.953
1114.00,48.957
1115.00,48.950
1116.00,48.957
1117.00,48.906
1118.00,48.899
1119.00,48.904
1120.00,48.905
1121.00,48.919
1122.00,48.910
1123.00,48.849
1124.00,48.847
1125.00,48.851
1126.00,48.893
1127.00,48.895
1128.00,48.874
1129.00,48.836
1130.00,48.849
1131.00,48.825
1132.00,48.820
1133.00,48.854
1134.00,48.829
1135.00,48.797
1136.00,48.808
1137.00,48.807
1138.00,48.817
1139.00,48.800
1140.00,48.780
1141.00,48.763
1142.00,48.806
1143.00,48.831
1144.00,48.783
1145.00,48.761
1146.00,48.734
1147.00,48.721
1148.00,48.738
1149.00,48.772
1150.00,48.793
1151.00,48.801
1152.00,48.774
1153.00,48.756
1154.00,48.751
1155.00,48.758
1156.00,48.770
1157.00,48.759
1158.00,48.741
1159.00,48.735
1160.00,48.743
1161.00,48.754
1162.00,48.735
1163.00,48.740
1164.00,48.733
1165.00,48.739
1166.00,48.723
1167.00,48.729
1168.00,48.739
1169.00,48.735
1170.00,48.721
1171.00,48.725
1172.00,48.713
1173.00,48.721
1174.00,48.737
1175.00,48.718
1176.00,48.729
1177.00,48.701
1178.00,48.703
1179.00,48.727
1180.00,48.734
1181.00,48.723
1182.00,48.713
1183.00,48.713
1184.00,48.694
1185.00,48.722
1186.00,48.714
1187.00,48.714
1188.00,48.701
1189.00,48.704
1190.00,48.684
1191.00,48.694
1192.00,48.699
1193.00,48.728
1194.00,48.697
1195.00,48.690
1196.00,48.724
1197.00,48.703
1198.00,48.714
1199.00,48.697
1200.00,48.700
1201.00,48.695
1202.00,48.686
1203.00,48.697
1204.00,48.692
1205.00,48.695
1206.00,48.685
1207.00,48.705
1208.00,48.674
1209.00,48.705
1210.00,48.713
1211.00,48.715
1212.00,48.708
1213.00,48.675
1214.00,48.703
1215.00,48.682
1216.00,48.708
1217.00,48.692
1218.00,48.694
1219.00,48.702
1220.00,48.696
1221.00,48.726
1222.00,48.719
1223.00,48.728
1224.00,48.706
1225.00,48.693
1226.00,48.706
1227.00,48.714
1228.00,48.714
1229.00,48.733
1230.00,48.762
1231.00,48.743
1232.00,48.755
1233.00,48.758
1234.00,48.768
1235.00,48.760
1236.00,48.757
1237.00,48.752
1238.00,48.769
1239.00,48.746
1240.00,48.759
1241.00,48.797
1242.00,48.793
1243.00,48.791
1244.00,48.754
1245.00,48.789
1246.00,48.812
1247.00,48.811
1248.00,48.811
1249.00,48.815
1250.00,48.802
1251.00,48.806
1252.00,48.804
1253.00,48.802
1254.00,48.822
1255.00,48.784
1256.00,48.788
1257.00,48.794
1258.00,48.857
1259.00,48.878
1260.00,48.878
1261.00,48.859
1262.00,48.859
1263.00,48.849
1264.00,48.879
1265.00,48.890
1266.00,48.887
1267.00,48.893
1268.00,48.897
1269.00,48.896
1270.00,48.944
1271.00,48.924
1272.00,48.923
1273.00,48.930
1274.00,48.931
1275.00,48.923
1276.00,48.937
1277.00,48.940
1278.00,48.972
1279.00,48.963
1280.00,48.945
1281.00,48.964
1282.00,48.963
1283.00,48.953
1284.00,48.915
1285.00,48.938
1286.00,48.990
1287.00,48.987
1288.00,48.992
1289.00,48.996
1290.00,49.034
1291.00,49.020
1292.00,49.021
1293.00,49.017
1294.00,49.023
1295.00,49.055
1296.00,49.058
1297.00,49.062
1298.00,49.074
1299.00,49.054
1300.00,49.073
1301.00,49.096
1302.00,49.126
1303.00,49.113
1304.00,49.110
1305.00,49.127
1306.00,49.120
1307.00,49.116
1308.00,49.098
1309.00,49.159
1310.00,49.181
1311.00,49.132
1312.00,49.112
1313.00,49.142
1314.00,49.206
1315.00,49.185
1316.00,49.209
1317.00,49.240
1318.00,49.246
1319.00,49.246
1320.00,49.266
1321.00,49.341
1322.00,49.383
1323.00,49.358
1324.00,49.330
1325.00,49.372
1326.00,49.455
1327.00,49.362
1328.00,49.331
1329.00,49.377
1330.00,49.400
1331.00,49.369
1332.00,49.319
1333.00,49.387
1334.00,49.465
1335.00,49.419
1336.00,49.403
1337.00,49.483
1338.00,49.583
1339.00,49.629
1340.00,49.682
1341.00,49.735
1342.00,49.811
1343.00,49.864
1344.00,49.940
1345.00,50.002
1346.00,49.992
1347.00,50.017
1348.00,50.075
1349.00,50.092
1350.00,50.042
1351.00,49.979
1352.00,49.903
1353.00,50.044
1354.00,50.189
1355.00,50.073
1356.00,50.281
1357.00,50.201
1358.00,50.094
1359.00,49.656
1360.00,49.414
1361.00,49.606
1362.00,49.676
1363.00,50.689
1364.00,50.855
1365.00,50.558
1366.00,50.172
1367.00,50.139
1368.00,50.127
1369.00,50.365
1370.00,50.231
1371.00,50.176
1372.00,50.341
1373.00,50.313
1374.00,50.123
1375.00,50.101
1376.00,50.122
1377.00,49.899
1378.00,50.204
1379.00,50.132
1380.00,49.990
1381.00,50.204
1382.00,50.410
1383.00,50.440
1384.00,50.482
1385.00,50.211
1386.00,50.133
1387.00,50.201
1388.00,50.488
1389.00,50.330
1390.00,49.950
1391.00,50.124
1392.00,50.335
1393.00,50.692
1394.00,50.212
1395.00,50.204
1396.00,50.737
1397.00,50.738
1398.00,50.347
1399.00,50.557
1400.00,50.710
1401.00,50.246
1402.00,50.273
1403.00,50.229
1404.00,50.286
1405.00,50.378
1406.00,50.091
1407.00,50.198
1408.00,50.235
1409.00,50.248
1410.00,50.210
1411.00,50.125
1412.00,50.135
1413.00,50.045
1414.00,50.140
1415.00,50.357
1416.00,50.434
1417.00,50.518
1418.00,50.398
1419.00,50.298
1420.00,50.429
1421.00,50.502
1422.00,50.443
1423.00,50.409
1424.00,50.447
1425.00,50.443
1426.00,50.424
1427.00,50.494
1428.00,50.515
1429.00,50.526
1430.00,50.552
1431.00,50.505
1432.00,50.586
1433.00,50.603
1434.00,50.602
1435.00,50.659
1436.00,50.618
1437.00,50.604
1438.00,50.680
1439.00,50.704
1440.00,50.711
1441.00,50.725
1442.00,50.711
1443.00,50.772
1444.00,50.778
1445.00,50.729
1446.00,50.769
1447.00,50.845
1448.00,50.892
1449.00,50.885
1450.00,50.848
1451.00,50.871
1452.00,50.915
1453.00,50.917
1454.00,50.931
1455.00,50.951
1456.00,50.963
1457.00,50.957
1458.00,50.974
1459.00,50.996
1460.00,51.043
1461.00,51.056
1462.00,51.079
1463.00,51.091
1464.00,51.095
1465.00,51.109
1466.00,51.124
1467.00,51.161
1468.00,51.206
1469.00,51.184
1470.00,51.210
1471.00,51.237
1472.00,51.234
1473.00,51.260
1474.00,51.295
1475.00,51.290
1476.00,51.298
1477.00,51.294
1478.00,51.340
1479.00,51.361
1480.00,51.356
1481.00,51.360
1482.00,51.383
1483.00,51.419
1484.00,51.452
1485.00,51.465
1486.00,51.459
1487.00,51.484
1488.00,51.499
1489.00,51.491
1490.00,51.485
1491.00,51.513
1492.00,51.530
1493.00,51.528
1494.00,51.544
1495.00,51.548
1496.00,51.598
1497.00,51.587
1498.00,51.577
1499.00,51.623
1500.00,51.628
1501.00, 
1502.00, 
1503.00, 
1504.00, 
1505.00, 
1506.00, 
1507.00, 
1508.00, 
1509.00, 
1510.00, 
1511.00, 
1512.00, 
1513.00, 
1514.00, 
1515.00, 
1516.00, 
1517.00, 
1518.00, 
1519.00, 
1520.00, 
1521.00, 
1522.00, 
1523.00, 
1524.00, 
1525.00, 
1526.00, 
1527.00, 
1528.00, 
1529.00, 
1530.00, 
1531.00, 
1532.00, 
1533.00, 
1534.00, 
1535.00, 
1536.00, 
1537.00, 
1538.00, 
1539.00, 
1540.00, 
1541.00, 
1542.00, 
1543.00, 
1544.00, 
1545.00, 
1546.00, 
1547.00, 
1548.00, 
1549.00, 
1550.00, 
1551.00, 
1552.00, 
1553.00, 
1554.00, 
1555.00, 
1556.00, 
1557.00, 
1558.00, 
1559.00, 
1560.00, 
1561.00, 
1562.00, 
1563.00, 
1564.00, 
1565.00, 
1566.00, 
1567.00, 
1568.00, 
1569.00, 
1570.00, 
1571.00, 
1572.00, 
1573.00, 
1574.00, 
1575.00, 
1576.00, 
1577.00, 
1578.00, 
1579.00, 
1580.00, 
1581.00, 
1582.00, 
1583.00, 
1584.00, 
1585.00, 
1586.00, 
1587.00, 
1588.00, 
1589.00, 
1590.00, 
1591.00, 
1592.00, 
1593.00, 
1594.00, 
1595.00, 
1596.00, 
1597.00, 
1598.00, 
1599.00, 
1600.00, 
1601.00, 
1602.00, 
1603.00, 
1604.00, 
1605.00, 
1606.00, 
1607.00, 
1608.00, 
1609.00, 
1610.00, 
1611.00, 
1612.00, 
1613.00, 
1614.00, 
1615.00, 
1616.00, 
1617.00, 
1618.00, 
1619.00, 
1620.00, 
1621.00, 
1622.00, 
1623.00, 
1624.00, 
1625.00, 
1626.00, 
1627.00, 
1628.00, 
1629.00, 
1630.00, 
1631.00, 
1632.00, 
1633.00, 
1634.00, 
1635.00, 
1636.00, 
1637.00, 
1638.00, 
1639.00, 
1640.00, 
1641.00, 
1642.00, 
1643.00, 
1644.00, 
1645.00, 
1646.00, 
1647.00, 
1648.00, 
1649.00, 
1650.00, 
1651.00, 
1652.00, 
1653.00, 
1654.00, 
1655.00, 
1656.00, 
1657.00, 
1658.00, 
1659.00, 
1660.00, 
1661.00, 
1662.00, 
1663.00, 
1664.00, 
1665.00, 
1666.00, 
1667.00, 
1668.00, 
1669.00, 
1670.00, 
1671.00, 
1672.00, 
1673.00, 
1674.00, 
1675.00, 
1676.00, 
1677.00, 
1678.00, 
1679.00, 
1680.00, 
1681.00, 
1682.00, 
1683.00, 
1684.00, 
1685.00, 
1686.00, 
1687.00, 
1688.00, 
1689.00, 
1690.00, 
1691.00, 
1692.00, 
1693.00, 
1694.00, 
1695.00, 
1696.00, 
1697.00, 
1698.00, 
1699.00, 
1700.00, 
1701.00, 
1702.00, 
1703.00, 
1704.00, 
1705.00, 
1706.00, 
1707.00, 
1708.00, 
1709.00, 
1710.00, 
1711.00, 
1712.00, 
1713.00, 
1714.00, 
1715.00, 
1716.00, 
1717.00, 
1718.00, 
1719.00, 
1720.00, 
1721.00, 
1722.00, 
1723.00, 
1724.00, 
1725.00, 
1726.00, 
1727.00, 
1728.00, 
1729.00, 
1730.00, 
1731.00, 
1732.00, 
1733.00, 
1734.00, 
1735.00, 
1736.00, 
1737.00, 
1738.00, 
1739.00, 
1740.00, 
1741.00, 
1742.00, 
1743.00, 
1744.00, 
1745.00, 
1746.00, 
1747.00, 
1748.00, 
1749.00, 
1750.00, 
1751.00, 
1752.00, 
1753.00, 
1754.00, 
1755.00, 
1756.00, 
1757.00, 
1758.00, 
1759.00, 
1760.00, 
1761.00, 
1762.00, 
1763.00, 
1764.00, 
1765.00, 
1766.00, 
1767.00, 
1768.00, 
1769.00, 
1770.00, 
1771.00, 
1772.00, 
1773.00, 
1774.00, 
1775.00, 
1776.00, 
1777.00, 
1778.00, 
1779.00, 
1780.00, 
1781.00, 
1782.00, 
1783.00, 
1784.00, 
1785.00, 
1786.00, 
1787.00, 
1788.00, 
1789.00, 
1790.00, 
1791.00, 
1792.00, 
1793.00, 
1794.00, 
1795.00, 
1796.00, 
1797.00, 
1798.00, 
1799.00, 
1800.00, 
1801.00, 
1802.00, 
1803.00, 
1804.00, 
1805.00, 
1806.00, 
1807.00, 
1808.00, 
1809.00, 
1810.00, 
1811.00, 
1812.00, 
1813.00, 
1814.00, 
1815.00, 
1816.00, 
1817.00, 
1818.00, 
1819.00, 
1820.00, 
1821.00, 
1822.00, 
1823.00, 
1824.00, 
1825.00, 
1826.00, 
1827.00, 
1828.00, 
1829.00, 
1830.00, 
1831.00, 
1832.00, 
1833.00, 
1834.00, 
1835.00, 
1836.00, 
1837.00, 
1838.00, 
1839.00, 
1840.00, 
1841.00, 
1842.00, 
1843.00, 
1844.00, 
1845.00, 
1846.00, 
1847.00, 
1848.00, 
1849.00, 
1850.00, 
1851.00, 
1852.00, 
1853.00, 
1854.00, 
1855.00, 
1856.00, 
1857.00, 
1858.00, 
1859.00, 
1860.00, 
1861.00, 
1862.00, 
1863.00, 
1864.00, 
1865.00, 
1866.00, 
1867.00, 
1868.00, 
1869.00, 
1870.00, 
1871.00, 
1872.00, 
1873.00, 
1874.00, 
1875.00, 
1876.00, 
1877.00, 
1878.00, 
1879.00, 
1880.00, 
1881.00, 
1882.00, 
1883.00, 
1884.00, 
1885.00, 
1886.00, 
1887.00, 
1888.00, 
1889.00, 
1890.00, 
1891.00, 
1892.00, 
1893.00, 
1894.00, 
1895.00, 
1896.00, 
1897.00, 
1898.00, 
1899.00, 
1900.00, 
1901.00, 
1902.00, 
1903.00, 
1904.00, 
1905.00, 
1906.00, 
1907.00, 
1908.00, 
1909.00, 
1910.00, 
1911.00, 
1912.00, 
1913.00, 
1914.00, 
1915.00, 
1916.00, 
1917.00, 
1918.00, 
1919.00, 
1920.00, 
1921.00, 
1922.00, 
1923.00, 
1924.00, 
1925.00, 
1926.00, 
1927.00, 
1928.00, 
1929.00, 
1930.00, 
1931.00, 
1932.00, 
1933.00, 
1934.00, 
1935.00, 
1936.00, 
1937.00, 
1938.00, 
1939.00, 
1940.00, 
1941.00, 
1942.00, 
1943.00, 
1944.00, 
1945.00, 
1946.00, 
1947.00, 
1948.00, 
1949.00, 
1950.00, 
1951.00, 
1952.00, 
1953.00, 
1954.00, 
1955.00, 
1956.00, 
1957.00, 
1958.00, 
1959.00, 
1960.00, 
1961.00, 
1962.00, 
1963.00, 
1964.00, 
1965.00, 
1966.00, 
1967.00, 
1968.00, 
1969.00, 
1970.00, 
1971.00, 
1972.00, 
1973.00, 
1974.00, 
1975.00, 
1976.00, 
1977.00, 
1978.00, 
1979.00, 
1980.00, 
1981.00, 
1982.00, 
1983.00, 
1984.00, 
1985.00, 
1986.00, 
1987.00, 
1988.00, 
1989.00, 
1990.00, 
1991.00, 
1992.00, 
1993.00, 
1994.00, 
1995.00, 
1996.00, 
1997.00, 
1998.00, 
1999.00, 
2000.00, 
2001.00, 
2002.00, 
2003.00, 
2004.00, 
2005.00, 
2006.00, 
2007.00, 
2008.00, 
2009.00, 
2010.00, 
2011.00, 
2012.00, 
2013.00, 
2014.00, 
2015.00, 
2016.00, 
2017.00, 
2018.00, 
2019.00, 
2020.00, 
2021.00, 
2022.00, 
2023.00, 
2024.00, 
2025.00, 
2026.00, 
2027.00, 
2028.00, 
2029.00, 
2030.00, 
2031.00, 
2032.00, 
2033.00, 
2034.00, 
2035.00, 
2036.00, 
2037.00, 
2038.00, 
2039.00, 
2040.00, 
2041.00, 
2042.00, 
2043.00, 
2044.00, 
2045.00, 
2046.00, 
2047.00, 
2048.00, 
2049.00, 
2050.00, 
2051.00, 
2052.00, 
2053.00, 
2054.00, 
2055.00, 
2056.00, 
2057.00, 
2058.00, 
2059.00, 
2060.00, 
2061.00, 
2062.00, 
2063.00, 
2064.00, 
2065.00, 
2066.00, 
2067.00, 
2068.00, 
2069.00, 
2070.00, 
2071.00, 
2072.00, 
2073.00, 
2074.00, 
2075.00, 
2076.00, 
2077.00, 
2078.00, 
2079.00, 
2080.00, 
2081.00, 
2082.00, 
2083.00, 
2084.00, 
2085.00, 
2086.00, 
2087.00, 
2088.00, 
2089.00, 
2090.00, 
2091.00, 
2092.00, 
2093.00, 
2094.00, 
2095.00, 
2096.00, 
2097.00, 
2098.00, 
2099.00, 
2100.00, 
2101.00, 
2102.00, 
2103.00, 
2104.00, 
2105.00, 
2106.00, 
2107.00, 
2108.00, 
2109.00, 
2110.00, 
2111.00, 
2112.00, 
2113.00, 
2114.00, 
2115.00, 
2116.00, 
2117.00, 
2118.00, 
2119.00, 
2120.00, 
2121.00, 
2122.00, 
2123.00, 
2124.00, 
2125.00, 
2126.00, 
2127.00, 
2128.00, 
2129.00, 
2130.00, 
2131.00, 
2132.00, 
2133.00, 
2134.00, 
2135.00, 
2136.00, 
2137.00, 
2138.00, 
2139.00, 
2140.00, 
2141.00, 
2142.00, 
2143.00, 
2144.00, 
2145.00, 
2146.00, 
2147.00, 
2148.00, 
2149.00, 
2150.00, 
2151.00, 
2152.00, 
2153.00, 
2154.00, 
2155.00, 
2156.00, 
2157.00, 
2158.00, 
2159.00, 
2160.00, 
2161.00, 
2162.00, 
2163.00, 
2164.00, 
2165.00, 
2166.00, 
2167.00, 
2168.00, 
2169.00, 
2170.00, 
2171.00, 
2172.00, 
2173.00, 
2174.00, 
2175.00, 
2176.00, 
2177.00, 
2178.00, 
2179.00, 
2180.00, 
2181.00, 
2182.00, 
2183.00, 
2184.00, 
2185.00, 
2186.00, 
2187.00, 
2188.00, 
2189.00, 
2190.00, 
2191.00, 
2192.00, 
2193.00, 
2194.00, 
2195.00, 
2196.00, 
2197.00, 
2198.00, 
2199.00, 
2200.00, 
2201.00, 
2202.00, 
2203.00, 
2204.00, 
2205.00, 
2206.00, 
2207.00, 
2208.00, 
2209.00, 
2210.00, 
2211.00, 
2212.00, 
2213.00, 
2214.00, 
2215.00, 
2216.00, 
2217.00, 
2218.00, 
2219.00, 
2220.00, 
2221.00, 
2222.00, 
2223.00, 
2224.00, 
2225.00, 
2226.00, 
2227.00, 
2228.00, 
2229.00, 
2230.00, 
2231.00, 
2232.00, 
2233.00, 
2234.00, 
2235.00, 
2236.00, 
2237.00, 
2238.00, 
2239.00, 
2240.00, 
2241.00, 
2242.00, 
2243.00, 
2244.00, 
2245.00, 
2246.00, 
2247.00, 
2248.00, 
2249.00, 
2250.00, 
2251.00, 
2252.00, 
2253.00, 
2254.00, 
2255.00, 
2256.00, 
2257.00, 
2258.00, 
2259.00, 
2260.00, 
2261.00, 
2262.00, 
2263.00, 
2264.00, 
2265.00, 
2266.00, 
2267.00, 
2268.00, 
2269.00, 
2270.00, 
2271.00, 
2272.00, 
2273.00, 
2274.00, 
2275.00, 
2276.00, 
2277.00, 
2278.00, 
2279.00, 
2280.00, 
2281.00, 
2282.00, 
2283.00, 
2284.00, 
2285.00, 
2286.00, 
2287.00, 
2288.00, 
2289.00, 
2290.00, 
2291.00, 
2292.00, 
2293.00, 
2294.00, 
2295.00, 
2296.00, 
2297.00, 
2298.00, 
2299.00, 
2300.00, 
2301.00, 
2302.00, 
2303.00, 
2304.00, 
2305.00, 
2306.00, 
2307.00, 
2308.00, 
2309.00, 
2310.00, 
2311.00, 
2312.00, 
2313.00, 
2314.00, 
2315.00, 
2316.00, 
2317.00, 
2318.00, 
2319.00, 
2320.00, 
2321.00, 
2322.00, 
2323.00, 
2324.00, 
2325.00, 
2326.00, 
2327.00, 
2328.00, 
2329.00, 
2330.00, 
2331.00, 
2332.00, 
2333.00, 
2334.00, 
2335.00, 
2336.00, 
2337.00, 
2338.00, 
2339.00, 
2340.00, 
2341.00, 
2342.00, 
2343.00, 
2344.00, 
2345.00, 
2346.00, 
2347.00, 
2348.00, 
2349.00, 
2350.00, 
2351.00, 
2352.00, 
2353.00, 
2354.00, 
2355.00, 
2356.00, 
2357.00, 
2358.00, 
2359.00, 
2360.00, 
2361.00, 
2362.00, 
2363.00, 
2364.00, 
2365.00, 
2366.00, 
2367.00, 
2368.00, 
2369.00, 
2370.00, 
2371.00, 
2372.00, 
2373.00, 
2374.00, 
2375.00, 
2376.00, 
2377.00, 
2378.00, 
2379.00, 
2380.00, 
2381.00, 
2382.00, 
2383.00, 
2384.00, 
2385.00, 
2386.00, 
2387.00, 
2388.00, 
2389.00, 
2390.00, 
2391.00, 
2392.00, 
2393.00, 
2394.00, 
2395.00, 
2396.00, 
2397.00, 
2398.00, 
2399.00, 
2400.00, 
2401.00, 
2402.00, 
2403.00, 
2404.00, 
2405.00, 
2406.00, 
2407.00, 
2408.00, 
2409.00, 
2410.00, 
2411.00, 
2412.00, 
2413.00, 
2414.00, 
2415.00, 
2416.00, 
2417.00, 
2418.00, 
2419.00, 
2420.00, 
2421.00, 
2422.00, 
2423.00, 
2424.00, 
2425.00, 
2426.00, 
2427.00, 
2428.00, 
2429.00, 
2430.00, 
2431.00, 
2432.00, 
2433.00, 
2434.00, 
2435.00, 
2436.00, 
2437.00, 
2438.00, 
2439.00, 
2440.00, 
2441.00, 
2442.00, 
2443.00, 
2444.00, 
2445.00, 
2446.00, 
2447.00, 
2448.00, 
2449.00, 
2450.00, 
2451.00, 
2452.00, 
2453.00, 
2454.00, 
2455.00, 
2456.00, 
2457.00, 
2458.00, 
2459.00, 
2460.00, 
2461.00, 
2462.00, 
2463.00, 
2464.00, 
2465.00, 
2466.00, 
2467.00, 
2468.00, 
2469.00, 
2470.00, 
2471.00, 
2472.00, 
2473.00, 
2474.00, 
2475.00, 
2476.00, 
2477.00, 
2478.00, 
2479.00, 
2480.00, 
2481.00, 
2482.00, 
2483.00, 
2484.00, 
2485.00, 
2486.00, 
2487.00, 
2488.00, 
2489.00, 
2490.00, 
2491.00, 
2492.00, 
2493.00, 
2494.00, 
2495.00, 
2496.00, 
2497.00, 
2498.00, 
2499.00, 
2500.00, 
2501.00, 
2502.00, 
2503.00, 
2504.00, 
2505.00, 
2506.00, 
2507.00, 
2508.00, 
2509.00, 
2510.00, 
2511.00, 
2512.00, 
2513.00, 
2514.00, 
2515.00, 
2516.00, 
2517.00, 
2518.00, 
2519.00, 
2520.00, 
2521.00, 
2522.00, 
2523.00, 
2524.00, 
2525.00, 
2526.00, 
2527.00, 
2528.00, 
2529.00, 
2530.00, 
2531.00, 
2532.00, 
2533.00, 
2534.00, 
2535.00, 
2536.00, 
2537.00, 
2538.00, 
2539.00, 
2540.00, 
2541.00, 
2542.00, 
2543.00, 
2544.00, 
2545.00, 
2546.00, 
2547.00, 
2548.00, 
2549.00, 
2550.00, 
2551.00, 
2552.00, 
2553.00, 
2554.00, 
2555.00, 
2556.00, 
2557.00, 
2558.00, 
2559.00, 
2560.00, 
2561.00, 
2562.00, 
2563.00, 
2564.00, 
2565.00, 
2566.00, 
2567.00, 
2568.00, 
2569.00, 
2570.00, 
2571.00, 
2572.00, 
2573.00, 
2574.00, 
2575.00, 
2576.00, 
2577.00, 
2578.00, 
2579.00, 
2580.00, 
2581.00, 
2582.00, 
2583.00, 
2584.00, 
2585.00, 
2586.00, 
2587.00, 
2588.00, 
2589.00, 
2590.00, 
2591.00, 
2592.00, 
2593.00, 
2594.00, 
2595.00, 
2596.00, 
2597.00, 
2598.00, 
2599.00, 
2600.00, 
