"2aP5 - RawData"
"Wavelength nm.","T%"
200.00,0.001
201.00,-0.001
202.00,0.003
203.00,-0.001
204.00,0.002
205.00,0.002
206.00,0.001
207.00,0.001
208.00,0.005
209.00,-0.002
210.00,0.000
211.00,-0.001
212.00,0.002
213.00,0.001
214.00,-0.001
215.00,0.001
216.00,0.002
217.00,0.002
218.00,-0.001
219.00,0.000
220.00,-0.000
221.00,-0.002
222.00,0.002
223.00,-0.000
224.00,0.001
225.00,-0.002
226.00,-0.001
227.00,0.000
228.00,-0.001
229.00,0.002
230.00,0.001
231.00,-0.001
232.00,0.000
233.00,-0.000
234.00,-0.001
235.00,0.000
236.00,0.000
237.00,0.000
238.00,-0.002
239.00,0.002
240.00,0.001
241.00,0.001
242.00,-0.000
243.00,0.002
244.00,0.001
245.00,0.001
246.00,0.001
247.00,-0.001
248.00,0.000
249.00,0.001
250.00,0.002
251.00,-0.000
252.00,-0.000
253.00,-0.000
254.00,-0.002
255.00,0.001
256.00,0.002
257.00,-0.001
258.00,-0.002
259.00,0.001
260.00,0.000
261.00,0.001
262.00,0.001
263.00,0.000
264.00,0.000
265.00,-0.000
266.00,-0.001
267.00,0.000
268.00,0.000
269.00,0.000
270.00,-0.000
271.00,-0.000
272.00,0.001
273.00,-0.000
274.00,0.001
275.00,0.000
276.00,0.002
277.00,-0.000
278.00,-0.001
279.00,-0.000
280.00,-0.000
281.00,0.000
282.00,0.001
283.00,-0.000
284.00,-0.002
285.00,-0.001
286.00,0.000
287.00,0.001
288.00,0.000
289.00,0.001
290.00,0.001
291.00,0.000
292.00,0.002
293.00,-0.001
294.00,-0.000
295.00,-0.000
296.00,0.001
297.00,-0.001
298.00,0.001
299.00,0.000
300.00,0.001
301.00,0.001
302.00,0.001
303.00,0.005
304.00,0.003
305.00,0.002
306.00,0.008
307.00,0.010
308.00,0.015
309.00,0.023
310.00,0.031
311.00,0.044
312.00,0.060
313.00,0.081
314.00,0.100
315.00,0.139
316.00,0.175
317.00,0.216
318.00,0.263
319.00,0.323
320.00,0.383
321.00,0.453
322.00,0.541
323.00,0.633
324.00,0.714
325.00,0.813
326.00,0.907
327.00,1.025
328.00,1.132
329.00,1.246
330.00,1.370
331.00,1.477
332.00,1.598
333.00,1.735
334.00,1.853
335.00,1.969
336.00,2.091
337.00,2.207
338.00,2.323
339.00,2.408
340.00,2.527
341.00,2.632
342.00,2.720
343.00,2.814
344.00,2.883
345.00,2.956
346.00,3.025
347.00,3.095
348.00,3.167
349.00,3.210
350.00,3.259
351.00,3.300
352.00,3.355
353.00,3.389
354.00,3.423
355.00,3.440
356.00,3.489
357.00,3.501
358.00,3.513
359.00,3.528
360.00,3.524
361.00,3.540
362.00,3.522
363.00,3.530
364.00,3.513
365.00,3.504
366.00,3.503
367.00,3.496
368.00,3.487
369.00,3.481
370.00,3.470
371.00,3.455
372.00,3.425
373.00,3.413
374.00,3.386
375.00,3.356
376.00,3.333
377.00,3.299
378.00,3.273
379.00,3.250
380.00,3.218
381.00,3.199
382.00,3.181
383.00,3.161
384.00,3.146
385.00,3.133
386.00,3.110
387.00,3.103
388.00,3.090
389.00,3.067
390.00,3.063
391.00,3.041
392.00,3.027
393.00,3.010
394.00,2.994
395.00,2.986
396.00,2.964
397.00,2.948
398.00,2.941
399.00,2.938
400.00,2.918
401.00,2.914
402.00,2.886
403.00,2.886
404.00,2.871
405.00,2.852
406.00,2.849
407.00,2.834
408.00,2.826
409.00,2.820
410.00,2.816
411.00,2.817
412.00,2.802
413.00,2.818
414.00,2.820
415.00,2.817
416.00,2.814
417.00,2.809
418.00,2.801
419.00,2.798
420.00,2.804
421.00,2.813
422.00,2.831
423.00,2.824
424.00,2.829
425.00,2.844
426.00,2.845
427.00,2.854
428.00,2.870
429.00,2.883
430.00,2.900
431.00,2.914
432.00,2.930
433.00,2.951
434.00,2.961
435.00,2.991
436.00,3.017
437.00,3.038
438.00,3.058
439.00,3.089
440.00,3.114
441.00,3.149
442.00,3.181
443.00,3.205
444.00,3.239
445.00,3.269
446.00,3.307
447.00,3.340
448.00,3.387
449.00,3.423
450.00,3.468
451.00,3.522
452.00,3.555
453.00,3.599
454.00,3.643
455.00,3.687
456.00,3.730
457.00,3.785
458.00,3.830
459.00,3.889
460.00,3.931
461.00,3.976
462.00,4.034
463.00,4.095
464.00,4.149
465.00,4.208
466.00,4.272
467.00,4.351
468.00,4.443
469.00,4.506
470.00,4.523
471.00,4.616
472.00,4.692
473.00,4.752
474.00,4.830
475.00,4.908
476.00,4.985
477.00,5.085
478.00,5.155
479.00,5.244
480.00,5.340
481.00,5.418
482.00,5.499
483.00,5.583
484.00,5.651
485.00,5.790
486.00,5.871
487.00,5.984
488.00,6.062
489.00,6.153
490.00,6.242
491.00,6.357
492.00,6.468
493.00,6.558
494.00,6.607
495.00,6.746
496.00,6.814
497.00,6.914
498.00,6.978
499.00,7.116
500.00,7.192
501.00,7.306
502.00,7.396
503.00,7.490
504.00,7.604
505.00,7.715
506.00,7.829
507.00,7.905
508.00,7.987
509.00,8.102
510.00,8.201
511.00,8.343
512.00,8.495
513.00,8.567
514.00,8.667
515.00,8.726
516.00,8.825
517.00,8.922
518.00,9.015
519.00,9.102
520.00,9.204
521.00,9.287
522.00,9.399
523.00,9.523
524.00,9.605
525.00,9.705
526.00,9.785
527.00,9.863
528.00,9.935
529.00,10.031
530.00,10.099
531.00,10.193
532.00,10.198
533.00,10.322
534.00,10.447
535.00,10.536
536.00,10.631
537.00,10.696
538.00,10.808
539.00,10.900
540.00,10.990
541.00,11.077
542.00,11.129
543.00,11.221
544.00,11.303
545.00,11.391
546.00,11.477
547.00,11.560
548.00,11.625
549.00,11.694
550.00,11.776
551.00,11.817
552.00,11.898
553.00,11.931
554.00,11.984
555.00,12.054
556.00,12.098
557.00,12.209
558.00,12.289
559.00,12.387
560.00,12.423
561.00,12.487
562.00,12.558
563.00,12.584
564.00,12.690
565.00,12.746
566.00,12.758
567.00,12.871
568.00,12.939
569.00,12.959
570.00,12.990
571.00,13.045
572.00,13.075
573.00,13.125
574.00,13.196
575.00,13.241
576.00,13.251
577.00,13.377
578.00,13.404
579.00,13.512
580.00,13.552
581.00,13.639
582.00,13.712
583.00,13.779
584.00,13.882
585.00,13.919
586.00,13.948
587.00,14.062
588.00,14.122
589.00,14.174
590.00,14.238
591.00,14.297
592.00,14.339
593.00,14.421
594.00,14.452
595.00,14.543
596.00,14.644
597.00,14.650
598.00,14.708
599.00,14.720
600.00,14.741
601.00,14.837
602.00,14.842
603.00,14.946
604.00,15.002
605.00,15.067
606.00,15.143
607.00,15.214
608.00,15.249
609.00,15.416
610.00,15.461
611.00,15.451
612.00,15.550
613.00,15.571
614.00,15.731
615.00,15.765
616.00,15.819
617.00,15.823
618.00,15.857
619.00,15.982
620.00,16.060
621.00,16.157
622.00,16.259
623.00,16.338
624.00,16.431
625.00,16.542
626.00,16.637
627.00,16.744
628.00,16.819
629.00,16.938
630.00,17.036
631.00,17.090
632.00,17.182
633.00,17.374
634.00,17.495
635.00,17.534
636.00,17.680
637.00,17.720
638.00,17.829
639.00,17.961
640.00,18.086
641.00,18.242
642.00,18.369
643.00,18.488
644.00,18.596
645.00,18.673
646.00,18.814
647.00,19.004
648.00,19.120
649.00,19.355
650.00,19.451
651.00,19.535
652.00,19.622
653.00,19.794
654.00,19.959
655.00,20.232
656.00,20.234
657.00,20.971
658.00,21.031
659.00,20.958
660.00,20.879
661.00,21.082
662.00,21.302
663.00,21.479
664.00,21.568
665.00,21.567
666.00,21.923
667.00,22.241
668.00,22.348
669.00,22.297
670.00,22.630
671.00,22.571
672.00,22.919
673.00,23.086
674.00,23.130
675.00,23.442
676.00,23.576
677.00,23.749
678.00,24.166
679.00,24.264
680.00,24.602
681.00,24.946
682.00,25.348
683.00,25.326
684.00,25.396
685.00,25.553
686.00,25.539
687.00,25.833
688.00,26.069
689.00,26.246
690.00,26.393
691.00,26.779
692.00,26.876
693.00,26.967
694.00,27.369
695.00,27.495
696.00,27.732
697.00,27.968
698.00,28.250
699.00,28.250
700.00,28.429
701.00,28.770
702.00,29.090
703.00,29.418
704.00,29.760
705.00,29.815
706.00,29.735
707.00,29.919
708.00,30.012
709.00,30.324
710.00,30.336
711.00,30.572
712.00,31.211
713.00,31.349
714.00,31.303
715.00,31.787
716.00,32.138
717.00,32.123
718.00,32.379
719.00,32.797
720.00,33.168
721.00,36.402
722.00,36.593
723.00,36.791
724.00,36.910
725.00,37.106
726.00,37.326
727.00,37.479
728.00,37.649
729.00,37.851
730.00,38.080
731.00,38.235
732.00,38.388
733.00,38.623
734.00,38.856
735.00,38.998
736.00,39.180
737.00,39.371
738.00,39.610
739.00,39.688
740.00,39.898
741.00,40.082
742.00,40.255
743.00,40.429
744.00,40.528
745.00,40.650
746.00,40.771
747.00,40.941
748.00,41.075
749.00,41.235
750.00,41.389
751.00,41.478
752.00,41.728
753.00,41.786
754.00,41.860
755.00,41.984
756.00,42.132
757.00,42.258
758.00,42.465
759.00,42.575
760.00,42.678
761.00,42.815
762.00,42.959
763.00,43.151
764.00,43.240
765.00,43.383
766.00,43.426
767.00,43.610
768.00,43.697
769.00,43.752
770.00,43.942
771.00,44.034
772.00,44.188
773.00,44.259
774.00,44.478
775.00,44.569
776.00,44.547
777.00,44.760
778.00,44.806
779.00,45.015
780.00,45.027
781.00,45.177
782.00,45.180
783.00,45.243
784.00,45.406
785.00,45.373
786.00,45.577
787.00,45.627
788.00,45.689
789.00,45.771
790.00,45.812
791.00,45.961
792.00,45.872
793.00,46.084
794.00,46.176
795.00,46.214
796.00,46.284
797.00,46.260
798.00,46.336
799.00,46.329
800.00,46.445
801.00,46.425
802.00,46.368
803.00,46.537
804.00,46.493
805.00,46.625
806.00,46.580
807.00,46.710
808.00,46.766
809.00,46.755
810.00,46.937
811.00,46.865
812.00,47.022
813.00,47.034
814.00,47.049
815.00,47.234
816.00,47.132
817.00,47.220
818.00,47.136
819.00,47.191
820.00,47.296
821.00,47.301
822.00,47.328
823.00,47.499
824.00,47.470
825.00,47.332
826.00,47.273
827.00,47.512
828.00,47.326
829.00,47.557
830.00,47.614
831.00,50.218
832.00,50.215
833.00,50.275
834.00,50.258
835.00,50.340
836.00,50.335
837.00,50.390
838.00,50.388
839.00,50.428
840.00,50.459
841.00,50.478
842.00,50.544
843.00,50.492
844.00,50.544
845.00,50.453
846.00,50.502
847.00,50.449
848.00,50.559
849.00,50.629
850.00,50.584
851.00,50.580
852.00,50.573
853.00,50.650
854.00,50.623
855.00,50.626
856.00,50.561
857.00,50.626
858.00,50.683
859.00,50.698
860.00,50.721
861.00,50.652
862.00,50.714
863.00,50.676
864.00,50.793
865.00,50.682
866.00,50.738
867.00,50.717
868.00,50.812
869.00,50.778
870.00,50.793
871.00,50.790
872.00,50.839
873.00,50.827
874.00,50.755
875.00,50.798
876.00,50.781
877.00,50.914
878.00,50.800
879.00,50.893
880.00,50.895
881.00,50.921
882.00,50.804
883.00,50.946
884.00,50.899
885.00,50.897
886.00,50.825
887.00,50.872
888.00,50.925
889.00,50.889
890.00,50.781
891.00,50.815
892.00,50.885
893.00,50.862
894.00,50.799
895.00,50.864
896.00,50.931
897.00,50.878
898.00,50.800
899.00,50.752
900.00,50.793
901.00,50.760
902.00,50.732
903.00,50.868
904.00,50.929
905.00,50.858
906.00,50.738
907.00,50.787
908.00,50.893
909.00,50.832
910.00,50.771
911.00,50.676
912.00,50.745
913.00,50.677
914.00,50.717
915.00,50.813
916.00,50.966
917.00,50.832
918.00,50.730
919.00,50.816
920.00,50.909
921.00,50.765
922.00,50.651
923.00,50.738
924.00,50.909
925.00,50.713
926.00,50.619
927.00,50.650
928.00,50.818
929.00,50.658
930.00,50.626
931.00,50.608
932.00,50.723
933.00,50.584
934.00,50.582
935.00,50.641
936.00,50.721
937.00,50.588
938.00,50.480
939.00,50.570
940.00,50.650
941.00,50.527
942.00,50.449
943.00,50.496
944.00,50.595
945.00,50.501
946.00,50.459
947.00,50.488
948.00,50.456
949.00,50.428
950.00,50.365
951.00,50.424
952.00,50.432
953.00,50.398
954.00,50.262
955.00,50.291
956.00,50.298
957.00,50.275
958.00,50.216
959.00,50.218
960.00,50.210
961.00,50.206
962.00,50.182
963.00,50.182
964.00,50.199
965.00,50.152
966.00,50.165
967.00,50.147
968.00,50.203
969.00,50.138
970.00,50.131
971.00,50.152
972.00,50.155
973.00,50.140
974.00,50.157
975.00,50.180
976.00,50.117
977.00,50.160
978.00,50.171
979.00,50.184
980.00,50.182
981.00,50.151
982.00,50.171
983.00,50.119
984.00,50.168
985.00,50.155
986.00,50.173
987.00,50.149
988.00,50.113
989.00,50.085
990.00,50.066
991.00,50.089
992.00,50.093
993.00,50.114
994.00,50.074
995.00,50.043
996.00,50.064
997.00,50.027
998.00,50.045
999.00,50.024
1000.00,50.023
1001.00,50.019
1002.00,49.992
1003.00,50.021
1004.00,49.983
1005.00,49.968
1006.00,49.952
1007.00,49.994
1008.00,49.967
1009.00,49.940
1010.00,49.933
1011.00,49.883
1012.00,49.904
1013.00,49.886
1014.00,49.892
1015.00,49.873
1016.00,49.840
1017.00,49.847
1018.00,49.832
1019.00,49.824
1020.00,49.784
1021.00,49.811
1022.00,49.792
1023.00,49.761
1024.00,49.717
1025.00,49.721
1026.00,49.750
1027.00,49.702
1028.00,49.693
1029.00,49.676
1030.00,49.689
1031.00,49.662
1032.00,49.629
1033.00,49.599
1034.00,49.612
1035.00,49.600
1036.00,49.520
1037.00,49.530
1038.00,49.517
1039.00,49.478
1040.00,49.451
1041.00,49.413
1042.00,49.413
1043.00,49.404
1044.00,49.457
1045.00,49.417
1046.00,49.402
1047.00,49.404
1048.00,49.445
1049.00,49.445
1050.00,49.474
1051.00,49.465
1052.00,49.500
1053.00,49.503
1054.00,49.531
1055.00,49.521
1056.00,49.535
1057.00,49.550
1058.00,49.543
1059.00,49.539
1060.00,49.521
1061.00,49.528
1062.00,49.510
1063.00,49.531
1064.00,49.475
1065.00,49.513
1066.00,49.501
1067.00,49.487
1068.00,49.468
1069.00,49.485
1070.00,49.450
1071.00,49.430
1072.00,49.425
1073.00,49.420
1074.00,49.407
1075.00,49.386
1076.00,49.386
1077.00,49.380
1078.00,49.374
1079.00,49.347
1080.00,49.360
1081.00,49.357
1082.00,49.337
1083.00,49.325
1084.00,49.342
1085.00,49.337
1086.00,49.326
1087.00,49.296
1088.00,49.295
1089.00,49.281
1090.00,49.293
1091.00,49.270
1092.00,49.288
1093.00,49.246
1094.00,49.230
1095.00,49.235
1096.00,49.251
1097.00,49.197
1098.00,49.206
1099.00,49.175
1100.00,49.191
1101.00,49.170
1102.00,49.175
1103.00,49.164
1104.00,49.179
1105.00,49.137
1106.00,49.134
1107.00,49.118
1108.00,49.115
1109.00,49.101
1110.00,49.088
1111.00,49.085
1112.00,49.074
1113.00,49.071
1114.00,49.080
1115.00,49.079
1116.00,49.071
1117.00,49.037
1118.00,49.044
1119.00,49.017
1120.00,49.026
1121.00,49.028
1122.00,49.028
1123.00,48.969
1124.00,48.969
1125.00,48.979
1126.00,49.021
1127.00,49.004
1128.00,48.988
1129.00,48.945
1130.00,48.952
1131.00,48.924
1132.00,48.912
1133.00,48.954
1134.00,48.886
1135.00,48.817
1136.00,48.902
1137.00,48.908
1138.00,48.897
1139.00,48.895
1140.00,48.892
1141.00,48.856
1142.00,48.874
1143.00,48.908
1144.00,48.873
1145.00,48.846
1146.00,48.829
1147.00,48.820
1148.00,48.845
1149.00,48.855
1150.00,48.874
1151.00,48.876
1152.00,48.836
1153.00,48.819
1154.00,48.814
1155.00,48.832
1156.00,48.849
1157.00,48.831
1158.00,48.808
1159.00,48.813
1160.00,48.798
1161.00,48.820
1162.00,48.810
1163.00,48.798
1164.00,48.779
1165.00,48.772
1166.00,48.771
1167.00,48.784
1168.00,48.782
1169.00,48.794
1170.00,48.773
1171.00,48.765
1172.00,48.776
1173.00,48.757
1174.00,48.768
1175.00,48.760
1176.00,48.750
1177.00,48.743
1178.00,48.740
1179.00,48.758
1180.00,48.770
1181.00,48.766
1182.00,48.751
1183.00,48.754
1184.00,48.739
1185.00,48.755
1186.00,48.744
1187.00,48.760
1188.00,48.752
1189.00,48.743
1190.00,48.712
1191.00,48.734
1192.00,48.734
1193.00,48.726
1194.00,48.719
1195.00,48.686
1196.00,48.697
1197.00,48.713
1198.00,48.715
1199.00,48.700
1200.00,48.702
1201.00,48.695
1202.00,48.702
1203.00,48.697
1204.00,48.697
1205.00,48.701
1206.00,48.676
1207.00,48.685
1208.00,48.654
1209.00,48.675
1210.00,48.683
1211.00,48.684
1212.00,48.685
1213.00,48.654
1214.00,48.687
1215.00,48.665
1216.00,48.690
1217.00,48.679
1218.00,48.667
1219.00,48.665
1220.00,48.649
1221.00,48.688
1222.00,48.672
1223.00,48.678
1224.00,48.662
1225.00,48.650
1226.00,48.647
1227.00,48.659
1228.00,48.668
1229.00,48.676
1230.00,48.709
1231.00,48.697
1232.00,48.728
1233.00,48.730
1234.00,48.715
1235.00,48.707
1236.00,48.716
1237.00,48.703
1238.00,48.717
1239.00,48.708
1240.00,48.699
1241.00,48.707
1242.00,48.718
1243.00,48.732
1244.00,48.685
1245.00,48.718
1246.00,48.752
1247.00,48.762
1248.00,48.747
1249.00,48.751
1250.00,48.746
1251.00,48.733
1252.00,48.737
1253.00,48.733
1254.00,48.755
1255.00,48.714
1256.00,48.675
1257.00,48.692
1258.00,48.762
1259.00,48.776
1260.00,48.776
1261.00,48.750
1262.00,48.751
1263.00,48.753
1264.00,48.760
1265.00,48.774
1266.00,48.778
1267.00,48.780
1268.00,48.790
1269.00,48.780
1270.00,48.812
1271.00,48.803
1272.00,48.793
1273.00,48.801
1274.00,48.799
1275.00,48.801
1276.00,48.815
1277.00,48.821
1278.00,48.833
1279.00,48.831
1280.00,48.814
1281.00,48.807
1282.00,48.824
1283.00,48.810
1284.00,48.784
1285.00,48.781
1286.00,48.825
1287.00,48.816
1288.00,48.806
1289.00,48.806
1290.00,48.863
1291.00,48.856
1292.00,48.853
1293.00,48.856
1294.00,48.861
1295.00,48.880
1296.00,48.887
1297.00,48.883
1298.00,48.901
1299.00,48.868
1300.00,48.896
1301.00,48.903
1302.00,48.950
1303.00,48.926
1304.00,48.910
1305.00,48.939
1306.00,48.917
1307.00,48.915
1308.00,48.901
1309.00,48.955
1310.00,48.979
1311.00,48.915
1312.00,48.893
1313.00,48.946
1314.00,48.985
1315.00,48.997
1316.00,49.000
1317.00,49.014
1318.00,49.024
1319.00,49.015
1320.00,49.043
1321.00,49.120
1322.00,49.177
1323.00,49.168
1324.00,49.108
1325.00,49.138
1326.00,49.221
1327.00,49.145
1328.00,49.104
1329.00,49.130
1330.00,49.172
1331.00,49.122
1332.00,49.073
1333.00,49.144
1334.00,49.209
1335.00,49.172
1336.00,49.122
1337.00,49.246
1338.00,49.349
1339.00,49.356
1340.00,49.425
1341.00,49.469
1342.00,49.527
1343.00,49.598
1344.00,49.664
1345.00,49.711
1346.00,49.713
1347.00,49.728
1348.00,49.796
1349.00,49.821
1350.00,49.761
1351.00,49.688
1352.00,49.611
1353.00,49.765
1354.00,49.860
1355.00,49.777
1356.00,49.992
1357.00,49.905
1358.00,49.788
1359.00,49.325
1360.00,49.153
1361.00,49.282
1362.00,49.509
1363.00,50.383
1364.00,50.551
1365.00,50.222
1366.00,49.883
1367.00,49.811
1368.00,49.783
1369.00,50.019
1370.00,49.912
1371.00,49.866
1372.00,50.005
1373.00,49.980
1374.00,49.824
1375.00,49.782
1376.00,49.745
1377.00,49.795
1378.00,49.881
1379.00,49.730
1380.00,49.652
1381.00,49.851
1382.00,50.045
1383.00,50.118
1384.00,50.140
1385.00,49.881
1386.00,49.760
1387.00,49.807
1388.00,50.098
1389.00,49.972
1390.00,49.561
1391.00,49.746
1392.00,49.960
1393.00,50.327
1394.00,49.856
1395.00,49.889
1396.00,50.364
1397.00,50.347
1398.00,50.177
1399.00,50.279
1400.00,50.337
1401.00,49.884
1402.00,49.866
1403.00,49.884
1404.00,49.922
1405.00,50.017
1406.00,49.729
1407.00,49.912
1408.00,49.890
1409.00,49.884
1410.00,49.848
1411.00,49.742
1412.00,49.796
1413.00,49.691
1414.00,49.767
1415.00,49.997
1416.00,49.976
1417.00,50.129
1418.00,50.015
1419.00,49.890
1420.00,50.017
1421.00,50.118
1422.00,50.009
1423.00,49.956
1424.00,50.052
1425.00,50.040
1426.00,50.033
1427.00,50.061
1428.00,50.099
1429.00,50.116
1430.00,50.113
1431.00,50.078
1432.00,50.144
1433.00,50.185
1434.00,50.144
1435.00,50.225
1436.00,50.180
1437.00,50.153
1438.00,50.191
1439.00,50.243
1440.00,50.255
1441.00,50.257
1442.00,50.267
1443.00,50.305
1444.00,50.303
1445.00,50.270
1446.00,50.334
1447.00,50.387
1448.00,50.420
1449.00,50.406
1450.00,50.380
1451.00,50.411
1452.00,50.423
1453.00,50.451
1454.00,50.444
1455.00,50.465
1456.00,50.468
1457.00,50.468
1458.00,50.501
1459.00,50.535
1460.00,50.561
1461.00,50.566
1462.00,50.588
1463.00,50.572
1464.00,50.577
1465.00,50.595
1466.00,50.599
1467.00,50.619
1468.00,50.673
1469.00,50.660
1470.00,50.666
1471.00,50.682
1472.00,50.706
1473.00,50.727
1474.00,50.764
1475.00,50.728
1476.00,50.735
1477.00,50.739
1478.00,50.779
1479.00,50.786
1480.00,50.803
1481.00,50.791
1482.00,50.787
1483.00,50.804
1484.00,50.867
1485.00,50.836
1486.00,50.843
1487.00,50.860
1488.00,50.874
1489.00,50.880
1490.00,50.880
1491.00,50.922
1492.00,50.952
1493.00,50.938
1494.00,50.967
1495.00,50.970
1496.00,50.998
1497.00,50.981
1498.00,50.982
1499.00,51.036
1500.00,51.026
1501.00, 
1502.00, 
1503.00, 
1504.00, 
1505.00, 
1506.00, 
1507.00, 
1508.00, 
1509.00, 
1510.00, 
1511.00, 
1512.00, 
1513.00, 
1514.00, 
1515.00, 
1516.00, 
1517.00, 
1518.00, 
1519.00, 
1520.00, 
1521.00, 
1522.00, 
1523.00, 
1524.00, 
1525.00, 
1526.00, 
1527.00, 
1528.00, 
1529.00, 
1530.00, 
1531.00, 
1532.00, 
1533.00, 
1534.00, 
1535.00, 
1536.00, 
1537.00, 
1538.00, 
1539.00, 
1540.00, 
1541.00, 
1542.00, 
1543.00, 
1544.00, 
1545.00, 
1546.00, 
1547.00, 
1548.00, 
1549.00, 
1550.00, 
1551.00, 
1552.00, 
1553.00, 
1554.00, 
1555.00, 
1556.00, 
1557.00, 
1558.00, 
1559.00, 
1560.00, 
1561.00, 
1562.00, 
1563.00, 
1564.00, 
1565.00, 
1566.00, 
1567.00, 
1568.00, 
1569.00, 
1570.00, 
1571.00, 
1572.00, 
1573.00, 
1574.00, 
1575.00, 
1576.00, 
1577.00, 
1578.00, 
1579.00, 
1580.00, 
1581.00, 
1582.00, 
1583.00, 
1584.00, 
1585.00, 
1586.00, 
1587.00, 
1588.00, 
1589.00, 
1590.00, 
1591.00, 
1592.00, 
1593.00, 
1594.00, 
1595.00, 
1596.00, 
1597.00, 
1598.00, 
1599.00, 
1600.00, 
1601.00, 
1602.00, 
1603.00, 
1604.00, 
1605.00, 
1606.00, 
1607.00, 
1608.00, 
1609.00, 
1610.00, 
1611.00, 
1612.00, 
1613.00, 
1614.00, 
1615.00, 
1616.00, 
1617.00, 
1618.00, 
1619.00, 
1620.00, 
1621.00, 
1622.00, 
1623.00, 
1624.00, 
1625.00, 
1626.00, 
1627.00, 
1628.00, 
1629.00, 
1630.00, 
1631.00, 
1632.00, 
1633.00, 
1634.00, 
1635.00, 
1636.00, 
1637.00, 
1638.00, 
1639.00, 
1640.00, 
1641.00, 
1642.00, 
1643.00, 
1644.00, 
1645.00, 
1646.00, 
1647.00, 
1648.00, 
1649.00, 
1650.00, 
1651.00, 
1652.00, 
1653.00, 
1654.00, 
1655.00, 
1656.00, 
1657.00, 
1658.00, 
1659.00, 
1660.00, 
1661.00, 
1662.00, 
1663.00, 
1664.00, 
1665.00, 
1666.00, 
1667.00, 
1668.00, 
1669.00, 
1670.00, 
1671.00, 
1672.00, 
1673.00, 
1674.00, 
1675.00, 
1676.00, 
1677.00, 
1678.00, 
1679.00, 
1680.00, 
1681.00, 
1682.00, 
1683.00, 
1684.00, 
1685.00, 
1686.00, 
1687.00, 
1688.00, 
1689.00, 
1690.00, 
1691.00, 
1692.00, 
1693.00, 
1694.00, 
1695.00, 
1696.00, 
1697.00, 
1698.00, 
1699.00, 
1700.00, 
1701.00, 
1702.00, 
1703.00, 
1704.00, 
1705.00, 
1706.00, 
1707.00, 
1708.00, 
1709.00, 
1710.00, 
1711.00, 
1712.00, 
1713.00, 
1714.00, 
1715.00, 
1716.00, 
1717.00, 
1718.00, 
1719.00, 
1720.00, 
1721.00, 
1722.00, 
1723.00, 
1724.00, 
1725.00, 
1726.00, 
1727.00, 
1728.00, 
1729.00, 
1730.00, 
1731.00, 
1732.00, 
1733.00, 
1734.00, 
1735.00, 
1736.00, 
1737.00, 
1738.00, 
1739.00, 
1740.00, 
1741.00, 
1742.00, 
1743.00, 
1744.00, 
1745.00, 
1746.00, 
1747.00, 
1748.00, 
1749.00, 
1750.00, 
1751.00, 
1752.00, 
1753.00, 
1754.00, 
1755.00, 
1756.00, 
1757.00, 
1758.00, 
1759.00, 
1760.00, 
1761.00, 
1762.00, 
1763.00, 
1764.00, 
1765.00, 
1766.00, 
1767.00, 
1768.00, 
1769.00, 
1770.00, 
1771.00, 
1772.00, 
1773.00, 
1774.00, 
1775.00, 
1776.00, 
1777.00, 
1778.00, 
1779.00, 
1780.00, 
1781.00, 
1782.00, 
1783.00, 
1784.00, 
1785.00, 
1786.00, 
1787.00, 
1788.00, 
1789.00, 
1790.00, 
1791.00, 
1792.00, 
1793.00, 
1794.00, 
1795.00, 
1796.00, 
1797.00, 
1798.00, 
1799.00, 
1800.00, 
1801.00, 
1802.00, 
1803.00, 
1804.00, 
1805.00, 
1806.00, 
1807.00, 
1808.00, 
1809.00, 
1810.00, 
1811.00, 
1812.00, 
1813.00, 
1814.00, 
1815.00, 
1816.00, 
1817.00, 
1818.00, 
1819.00, 
1820.00, 
1821.00, 
1822.00, 
1823.00, 
1824.00, 
1825.00, 
1826.00, 
1827.00, 
1828.00, 
1829.00, 
1830.00, 
1831.00, 
1832.00, 
1833.00, 
1834.00, 
1835.00, 
1836.00, 
1837.00, 
1838.00, 
1839.00, 
1840.00, 
1841.00, 
1842.00, 
1843.00, 
1844.00, 
1845.00, 
1846.00, 
1847.00, 
1848.00, 
1849.00, 
1850.00, 
1851.00, 
1852.00, 
1853.00, 
1854.00, 
1855.00, 
1856.00, 
1857.00, 
1858.00, 
1859.00, 
1860.00, 
1861.00, 
1862.00, 
1863.00, 
1864.00, 
1865.00, 
1866.00, 
1867.00, 
1868.00, 
1869.00, 
1870.00, 
1871.00, 
1872.00, 
1873.00, 
1874.00, 
1875.00, 
1876.00, 
1877.00, 
1878.00, 
1879.00, 
1880.00, 
1881.00, 
1882.00, 
1883.00, 
1884.00, 
1885.00, 
1886.00, 
1887.00, 
1888.00, 
1889.00, 
1890.00, 
1891.00, 
1892.00, 
1893.00, 
1894.00, 
1895.00, 
1896.00, 
1897.00, 
1898.00, 
1899.00, 
1900.00, 
1901.00, 
1902.00, 
1903.00, 
1904.00, 
1905.00, 
1906.00, 
1907.00, 
1908.00, 
1909.00, 
1910.00, 
1911.00, 
1912.00, 
1913.00, 
1914.00, 
1915.00, 
1916.00, 
1917.00, 
1918.00, 
1919.00, 
1920.00, 
1921.00, 
1922.00, 
1923.00, 
1924.00, 
1925.00, 
1926.00, 
1927.00, 
1928.00, 
1929.00, 
1930.00, 
1931.00, 
1932.00, 
1933.00, 
1934.00, 
1935.00, 
1936.00, 
1937.00, 
1938.00, 
1939.00, 
1940.00, 
1941.00, 
1942.00, 
1943.00, 
1944.00, 
1945.00, 
1946.00, 
1947.00, 
1948.00, 
1949.00, 
1950.00, 
1951.00, 
1952.00, 
1953.00, 
1954.00, 
1955.00, 
1956.00, 
1957.00, 
1958.00, 
1959.00, 
1960.00, 
1961.00, 
1962.00, 
1963.00, 
1964.00, 
1965.00, 
1966.00, 
1967.00, 
1968.00, 
1969.00, 
1970.00, 
1971.00, 
1972.00, 
1973.00, 
1974.00, 
1975.00, 
1976.00, 
1977.00, 
1978.00, 
1979.00, 
1980.00, 
1981.00, 
1982.00, 
1983.00, 
1984.00, 
1985.00, 
1986.00, 
1987.00, 
1988.00, 
1989.00, 
1990.00, 
1991.00, 
1992.00, 
1993.00, 
1994.00, 
1995.00, 
1996.00, 
1997.00, 
1998.00, 
1999.00, 
2000.00, 
2001.00, 
2002.00, 
2003.00, 
2004.00, 
2005.00, 
2006.00, 
2007.00, 
2008.00, 
2009.00, 
2010.00, 
2011.00, 
2012.00, 
2013.00, 
2014.00, 
2015.00, 
2016.00, 
2017.00, 
2018.00, 
2019.00, 
2020.00, 
2021.00, 
2022.00, 
2023.00, 
2024.00, 
2025.00, 
2026.00, 
2027.00, 
2028.00, 
2029.00, 
2030.00, 
2031.00, 
2032.00, 
2033.00, 
2034.00, 
2035.00, 
2036.00, 
2037.00, 
2038.00, 
2039.00, 
2040.00, 
2041.00, 
2042.00, 
2043.00, 
2044.00, 
2045.00, 
2046.00, 
2047.00, 
2048.00, 
2049.00, 
2050.00, 
2051.00, 
2052.00, 
2053.00, 
2054.00, 
2055.00, 
2056.00, 
2057.00, 
2058.00, 
2059.00, 
2060.00, 
2061.00, 
2062.00, 
2063.00, 
2064.00, 
2065.00, 
2066.00, 
2067.00, 
2068.00, 
2069.00, 
2070.00, 
2071.00, 
2072.00, 
2073.00, 
2074.00, 
2075.00, 
2076.00, 
2077.00, 
2078.00, 
2079.00, 
2080.00, 
2081.00, 
2082.00, 
2083.00, 
2084.00, 
2085.00, 
2086.00, 
2087.00, 
2088.00, 
2089.00, 
2090.00, 
2091.00, 
2092.00, 
2093.00, 
2094.00, 
2095.00, 
2096.00, 
2097.00, 
2098.00, 
2099.00, 
2100.00, 
2101.00, 
2102.00, 
2103.00, 
2104.00, 
2105.00, 
2106.00, 
2107.00, 
2108.00, 
2109.00, 
2110.00, 
2111.00, 
2112.00, 
2113.00, 
2114.00, 
2115.00, 
2116.00, 
2117.00, 
2118.00, 
2119.00, 
2120.00, 
2121.00, 
2122.00, 
2123.00, 
2124.00, 
2125.00, 
2126.00, 
2127.00, 
2128.00, 
2129.00, 
2130.00, 
2131.00, 
2132.00, 
2133.00, 
2134.00, 
2135.00, 
2136.00, 
2137.00, 
2138.00, 
2139.00, 
2140.00, 
2141.00, 
2142.00, 
2143.00, 
2144.00, 
2145.00, 
2146.00, 
2147.00, 
2148.00, 
2149.00, 
2150.00, 
2151.00, 
2152.00, 
2153.00, 
2154.00, 
2155.00, 
2156.00, 
2157.00, 
2158.00, 
2159.00, 
2160.00, 
2161.00, 
2162.00, 
2163.00, 
2164.00, 
2165.00, 
2166.00, 
2167.00, 
2168.00, 
2169.00, 
2170.00, 
2171.00, 
2172.00, 
2173.00, 
2174.00, 
2175.00, 
2176.00, 
2177.00, 
2178.00, 
2179.00, 
2180.00, 
2181.00, 
2182.00, 
2183.00, 
2184.00, 
2185.00, 
2186.00, 
2187.00, 
2188.00, 
2189.00, 
2190.00, 
2191.00, 
2192.00, 
2193.00, 
2194.00, 
2195.00, 
2196.00, 
2197.00, 
2198.00, 
2199.00, 
2200.00, 
2201.00, 
2202.00, 
2203.00, 
2204.00, 
2205.00, 
2206.00, 
2207.00, 
2208.00, 
2209.00, 
2210.00, 
2211.00, 
2212.00, 
2213.00, 
2214.00, 
2215.00, 
2216.00, 
2217.00, 
2218.00, 
2219.00, 
2220.00, 
2221.00, 
2222.00, 
2223.00, 
2224.00, 
2225.00, 
2226.00, 
2227.00, 
2228.00, 
2229.00, 
2230.00, 
2231.00, 
2232.00, 
2233.00, 
2234.00, 
2235.00, 
2236.00, 
2237.00, 
2238.00, 
2239.00, 
2240.00, 
2241.00, 
2242.00, 
2243.00, 
2244.00, 
2245.00, 
2246.00, 
2247.00, 
2248.00, 
2249.00, 
2250.00, 
2251.00, 
2252.00, 
2253.00, 
2254.00, 
2255.00, 
2256.00, 
2257.00, 
2258.00, 
2259.00, 
2260.00, 
2261.00, 
2262.00, 
2263.00, 
2264.00, 
2265.00, 
2266.00, 
2267.00, 
2268.00, 
2269.00, 
2270.00, 
2271.00, 
2272.00, 
2273.00, 
2274.00, 
2275.00, 
2276.00, 
2277.00, 
2278.00, 
2279.00, 
2280.00, 
2281.00, 
2282.00, 
2283.00, 
2284.00, 
2285.00, 
2286.00, 
2287.00, 
2288.00, 
2289.00, 
2290.00, 
2291.00, 
2292.00, 
2293.00, 
2294.00, 
2295.00, 
2296.00, 
2297.00, 
2298.00, 
2299.00, 
2300.00, 
2301.00, 
2302.00, 
2303.00, 
2304.00, 
2305.00, 
2306.00, 
2307.00, 
2308.00, 
2309.00, 
2310.00, 
2311.00, 
2312.00, 
2313.00, 
2314.00, 
2315.00, 
2316.00, 
2317.00, 
2318.00, 
2319.00, 
2320.00, 
2321.00, 
2322.00, 
2323.00, 
2324.00, 
2325.00, 
2326.00, 
2327.00, 
2328.00, 
2329.00, 
2330.00, 
2331.00, 
2332.00, 
2333.00, 
2334.00, 
2335.00, 
2336.00, 
2337.00, 
2338.00, 
2339.00, 
2340.00, 
2341.00, 
2342.00, 
2343.00, 
2344.00, 
2345.00, 
2346.00, 
2347.00, 
2348.00, 
2349.00, 
2350.00, 
2351.00, 
2352.00, 
2353.00, 
2354.00, 
2355.00, 
2356.00, 
2357.00, 
2358.00, 
2359.00, 
2360.00, 
2361.00, 
2362.00, 
2363.00, 
2364.00, 
2365.00, 
2366.00, 
2367.00, 
2368.00, 
2369.00, 
2370.00, 
2371.00, 
2372.00, 
2373.00, 
2374.00, 
2375.00, 
2376.00, 
2377.00, 
2378.00, 
2379.00, 
2380.00, 
2381.00, 
2382.00, 
2383.00, 
2384.00, 
2385.00, 
2386.00, 
2387.00, 
2388.00, 
2389.00, 
2390.00, 
2391.00, 
2392.00, 
2393.00, 
2394.00, 
2395.00, 
2396.00, 
2397.00, 
2398.00, 
2399.00, 
2400.00, 
2401.00, 
2402.00, 
2403.00, 
2404.00, 
2405.00, 
2406.00, 
2407.00, 
2408.00, 
2409.00, 
2410.00, 
2411.00, 
2412.00, 
2413.00, 
2414.00, 
2415.00, 
2416.00, 
2417.00, 
2418.00, 
2419.00, 
2420.00, 
2421.00, 
2422.00, 
2423.00, 
2424.00, 
2425.00, 
2426.00, 
2427.00, 
2428.00, 
2429.00, 
2430.00, 
2431.00, 
2432.00, 
2433.00, 
2434.00, 
2435.00, 
2436.00, 
2437.00, 
2438.00, 
2439.00, 
2440.00, 
2441.00, 
2442.00, 
2443.00, 
2444.00, 
2445.00, 
2446.00, 
2447.00, 
2448.00, 
2449.00, 
2450.00, 
2451.00, 
2452.00, 
2453.00, 
2454.00, 
2455.00, 
2456.00, 
2457.00, 
2458.00, 
2459.00, 
2460.00, 
2461.00, 
2462.00, 
2463.00, 
2464.00, 
2465.00, 
2466.00, 
2467.00, 
2468.00, 
2469.00, 
2470.00, 
2471.00, 
2472.00, 
2473.00, 
2474.00, 
2475.00, 
2476.00, 
2477.00, 
2478.00, 
2479.00, 
2480.00, 
2481.00, 
2482.00, 
2483.00, 
2484.00, 
2485.00, 
2486.00, 
2487.00, 
2488.00, 
2489.00, 
2490.00, 
2491.00, 
2492.00, 
2493.00, 
2494.00, 
2495.00, 
2496.00, 
2497.00, 
2498.00, 
2499.00, 
2500.00, 
2501.00, 
2502.00, 
2503.00, 
2504.00, 
2505.00, 
2506.00, 
2507.00, 
2508.00, 
2509.00, 
2510.00, 
2511.00, 
2512.00, 
2513.00, 
2514.00, 
2515.00, 
2516.00, 
2517.00, 
2518.00, 
2519.00, 
2520.00, 
2521.00, 
2522.00, 
2523.00, 
2524.00, 
2525.00, 
2526.00, 
2527.00, 
2528.00, 
2529.00, 
2530.00, 
2531.00, 
2532.00, 
2533.00, 
2534.00, 
2535.00, 
2536.00, 
2537.00, 
2538.00, 
2539.00, 
2540.00, 
2541.00, 
2542.00, 
2543.00, 
2544.00, 
2545.00, 
2546.00, 
2547.00, 
2548.00, 
2549.00, 
2550.00, 
2551.00, 
2552.00, 
2553.00, 
2554.00, 
2555.00, 
2556.00, 
2557.00, 
2558.00, 
2559.00, 
2560.00, 
2561.00, 
2562.00, 
2563.00, 
2564.00, 
2565.00, 
2566.00, 
2567.00, 
2568.00, 
2569.00, 
2570.00, 
2571.00, 
2572.00, 
2573.00, 
2574.00, 
2575.00, 
2576.00, 
2577.00, 
2578.00, 
2579.00, 
2580.00, 
2581.00, 
2582.00, 
2583.00, 
2584.00, 
2585.00, 
2586.00, 
2587.00, 
2588.00, 
2589.00, 
2590.00, 
2591.00, 
2592.00, 
2593.00, 
2594.00, 
2595.00, 
2596.00, 
2597.00, 
2598.00, 
2599.00, 
2600.00, 
