"2bP1 - RawData"
"Wavelength nm.","T%"
200.00,0.002
201.00,0.002
202.00,0.005
203.00,-0.003
204.00,0.002
205.00,0.002
206.00,0.002
207.00,0.001
208.00,0.000
209.00,-0.000
210.00,0.003
211.00,-0.002
212.00,-0.000
213.00,0.001
214.00,0.002
215.00,0.001
216.00,-0.001
217.00,-0.001
218.00,0.001
219.00,0.002
220.00,-0.001
221.00,0.000
222.00,0.001
223.00,0.003
224.00,0.002
225.00,0.002
226.00,0.001
227.00,-0.002
228.00,0.004
229.00,-0.001
230.00,-0.001
231.00,0.000
232.00,-0.000
233.00,-0.001
234.00,0.000
235.00,-0.001
236.00,0.001
237.00,-0.002
238.00,-0.001
239.00,-0.001
240.00,-0.000
241.00,-0.000
242.00,0.003
243.00,0.000
244.00,-0.000
245.00,-0.001
246.00,0.002
247.00,0.001
248.00,0.000
249.00,0.002
250.00,-0.000
251.00,-0.001
252.00,-0.000
253.00,-0.002
254.00,0.000
255.00,-0.001
256.00,0.001
257.00,0.001
258.00,0.001
259.00,-0.002
260.00,0.002
261.00,0.000
262.00,0.001
263.00,-0.000
264.00,-0.001
265.00,-0.000
266.00,-0.000
267.00,-0.001
268.00,-0.000
269.00,0.000
270.00,0.000
271.00,-0.001
272.00,-0.000
273.00,0.001
274.00,0.000
275.00,-0.000
276.00,-0.002
277.00,-0.000
278.00,0.001
279.00,0.000
280.00,-0.001
281.00,-0.000
282.00,0.000
283.00,-0.001
284.00,0.000
285.00,0.002
286.00,0.002
287.00,0.000
288.00,0.001
289.00,-0.000
290.00,0.000
291.00,-0.001
292.00,0.000
293.00,0.001
294.00,-0.000
295.00,-0.000
296.00,-0.001
297.00,-0.000
298.00,0.001
299.00,0.001
300.00,0.003
301.00,-0.001
302.00,0.001
303.00,0.002
304.00,0.004
305.00,0.004
306.00,0.011
307.00,0.012
308.00,0.023
309.00,0.034
310.00,0.044
311.00,0.062
312.00,0.085
313.00,0.109
314.00,0.145
315.00,0.183
316.00,0.234
317.00,0.287
318.00,0.339
319.00,0.422
320.00,0.501
321.00,0.587
322.00,0.691
323.00,0.807
324.00,0.923
325.00,1.040
326.00,1.164
327.00,1.308
328.00,1.443
329.00,1.591
330.00,1.747
331.00,1.865
332.00,2.026
333.00,2.189
334.00,2.324
335.00,2.473
336.00,2.619
337.00,2.781
338.00,2.912
339.00,3.021
340.00,3.164
341.00,3.291
342.00,3.383
343.00,3.513
344.00,3.603
345.00,3.687
346.00,3.779
347.00,3.848
348.00,3.939
349.00,3.984
350.00,4.055
351.00,4.127
352.00,4.164
353.00,4.217
354.00,4.239
355.00,4.296
356.00,4.343
357.00,4.341
358.00,4.359
359.00,4.382
360.00,4.390
361.00,4.410
362.00,4.384
363.00,4.385
364.00,4.376
365.00,4.389
366.00,4.369
367.00,4.362
368.00,4.347
369.00,4.341
370.00,4.331
371.00,4.314
372.00,4.286
373.00,4.276
374.00,4.239
375.00,4.210
376.00,4.164
377.00,4.134
378.00,4.103
379.00,4.062
380.00,4.041
381.00,4.022
382.00,3.997
383.00,3.973
384.00,3.947
385.00,3.941
386.00,3.921
387.00,3.905
388.00,3.887
389.00,3.878
390.00,3.863
391.00,3.833
392.00,3.823
393.00,3.803
394.00,3.785
395.00,3.781
396.00,3.742
397.00,3.736
398.00,3.715
399.00,3.710
400.00,3.693
401.00,3.679
402.00,3.661
403.00,3.659
404.00,3.637
405.00,3.612
406.00,3.612
407.00,3.600
408.00,3.592
409.00,3.587
410.00,3.572
411.00,3.576
412.00,3.560
413.00,3.580
414.00,3.578
415.00,3.573
416.00,3.576
417.00,3.541
418.00,3.553
419.00,3.546
420.00,3.557
421.00,3.568
422.00,3.579
423.00,3.563
424.00,3.588
425.00,3.592
426.00,3.609
427.00,3.621
428.00,3.639
429.00,3.647
430.00,3.658
431.00,3.684
432.00,3.698
433.00,3.724
434.00,3.740
435.00,3.773
436.00,3.795
437.00,3.823
438.00,3.837
439.00,3.875
440.00,3.909
441.00,3.936
442.00,3.977
443.00,4.007
444.00,4.054
445.00,4.090
446.00,4.146
447.00,4.173
448.00,4.217
449.00,4.264
450.00,4.317
451.00,4.366
452.00,4.415
453.00,4.466
454.00,4.516
455.00,4.570
456.00,4.619
457.00,4.681
458.00,4.720
459.00,4.795
460.00,4.853
461.00,4.912
462.00,4.961
463.00,5.028
464.00,5.086
465.00,5.153
466.00,5.236
467.00,5.334
468.00,5.422
469.00,5.488
470.00,5.523
471.00,5.615
472.00,5.708
473.00,5.795
474.00,5.870
475.00,5.973
476.00,6.058
477.00,6.148
478.00,6.209
479.00,6.322
480.00,6.427
481.00,6.520
482.00,6.605
483.00,6.694
484.00,6.740
485.00,6.930
486.00,7.030
487.00,7.149
488.00,7.228
489.00,7.356
490.00,7.422
491.00,7.555
492.00,7.685
493.00,7.782
494.00,7.839
495.00,7.987
496.00,8.052
497.00,8.179
498.00,8.264
499.00,8.388
500.00,8.486
501.00,8.603
502.00,8.704
503.00,8.828
504.00,8.922
505.00,9.039
506.00,9.171
507.00,9.268
508.00,9.352
509.00,9.463
510.00,9.557
511.00,9.690
512.00,9.922
513.00,10.006
514.00,10.116
515.00,10.167
516.00,10.279
517.00,10.383
518.00,10.492
519.00,10.564
520.00,10.688
521.00,10.774
522.00,10.886
523.00,11.017
524.00,11.090
525.00,11.210
526.00,11.289
527.00,11.376
528.00,11.444
529.00,11.549
530.00,11.625
531.00,11.730
532.00,11.724
533.00,11.858
534.00,11.982
535.00,12.053
536.00,12.171
537.00,12.224
538.00,12.398
539.00,12.468
540.00,12.597
541.00,12.674
542.00,12.728
543.00,12.832
544.00,12.914
545.00,13.041
546.00,13.107
547.00,13.205
548.00,13.269
549.00,13.358
550.00,13.444
551.00,13.494
552.00,13.584
553.00,13.623
554.00,13.666
555.00,13.744
556.00,13.793
557.00,13.910
558.00,13.986
559.00,14.092
560.00,14.124
561.00,14.190
562.00,14.270
563.00,14.305
564.00,14.413
565.00,14.470
566.00,14.499
567.00,14.588
568.00,14.644
569.00,14.663
570.00,14.735
571.00,14.801
572.00,14.897
573.00,14.887
574.00,14.966
575.00,14.974
576.00,15.031
577.00,15.133
578.00,15.188
579.00,15.279
580.00,15.329
581.00,15.389
582.00,15.480
583.00,15.540
584.00,15.620
585.00,15.687
586.00,15.747
587.00,15.860
588.00,15.903
589.00,16.008
590.00,16.058
591.00,16.117
592.00,16.158
593.00,16.227
594.00,16.322
595.00,16.366
596.00,16.473
597.00,16.525
598.00,16.554
599.00,16.564
600.00,16.570
601.00,16.671
602.00,16.701
603.00,16.805
604.00,16.847
605.00,16.925
606.00,17.022
607.00,17.105
608.00,17.157
609.00,17.309
610.00,17.335
611.00,17.327
612.00,17.418
613.00,17.503
614.00,17.626
615.00,17.684
616.00,17.720
617.00,17.762
618.00,17.791
619.00,17.887
620.00,17.938
621.00,18.067
622.00,18.169
623.00,18.234
624.00,18.333
625.00,18.437
626.00,18.535
627.00,18.730
628.00,18.777
629.00,18.887
630.00,19.021
631.00,19.097
632.00,19.217
633.00,19.328
634.00,19.451
635.00,19.487
636.00,19.626
637.00,19.689
638.00,19.808
639.00,19.896
640.00,20.054
641.00,20.186
642.00,20.352
643.00,20.476
644.00,20.567
645.00,20.661
646.00,20.788
647.00,20.986
648.00,21.110
649.00,21.361
650.00,21.459
651.00,21.521
652.00,21.651
653.00,21.812
654.00,21.973
655.00,22.245
656.00,22.263
657.00,23.053
658.00,23.121
659.00,22.983
660.00,22.897
661.00,23.171
662.00,23.335
663.00,23.544
664.00,23.654
665.00,23.550
666.00,23.936
667.00,24.300
668.00,24.471
669.00,24.323
670.00,24.631
671.00,24.570
672.00,24.909
673.00,25.112
674.00,25.169
675.00,25.461
676.00,25.652
677.00,25.788
678.00,26.179
679.00,26.297
680.00,26.595
681.00,27.035
682.00,27.375
683.00,27.370
684.00,27.362
685.00,27.463
686.00,27.620
687.00,27.889
688.00,28.132
689.00,28.382
690.00,28.462
691.00,28.826
692.00,28.936
693.00,28.990
694.00,29.396
695.00,29.594
696.00,29.805
697.00,30.059
698.00,30.347
699.00,30.302
700.00,30.429
701.00,30.792
702.00,31.215
703.00,31.466
704.00,31.862
705.00,31.896
706.00,31.789
707.00,31.893
708.00,32.103
709.00,32.269
710.00,32.322
711.00,32.595
712.00,33.218
713.00,33.323
714.00,33.376
715.00,33.744
716.00,34.102
717.00,34.129
718.00,34.291
719.00,34.748
720.00,35.146
721.00,38.454
722.00,38.634
723.00,38.739
724.00,38.928
725.00,39.086
726.00,39.312
727.00,39.421
728.00,39.610
729.00,39.792
730.00,40.043
731.00,40.180
732.00,40.376
733.00,40.527
734.00,40.804
735.00,40.917
736.00,41.102
737.00,41.264
738.00,41.474
739.00,41.698
740.00,41.787
741.00,41.996
742.00,42.166
743.00,42.277
744.00,42.367
745.00,42.493
746.00,42.658
747.00,42.822
748.00,43.024
749.00,43.081
750.00,43.268
751.00,43.411
752.00,43.582
753.00,43.599
754.00,43.732
755.00,43.806
756.00,43.972
757.00,44.143
758.00,44.231
759.00,44.400
760.00,44.444
761.00,44.692
762.00,44.757
763.00,44.936
764.00,45.037
765.00,45.159
766.00,45.251
767.00,45.314
768.00,45.480
769.00,45.558
770.00,45.746
771.00,45.805
772.00,45.962
773.00,46.065
774.00,46.188
775.00,46.349
776.00,46.326
777.00,46.521
778.00,46.480
779.00,46.733
780.00,46.781
781.00,46.827
782.00,46.933
783.00,46.946
784.00,47.116
785.00,47.139
786.00,47.269
787.00,47.343
788.00,47.351
789.00,47.493
790.00,47.444
791.00,47.591
792.00,47.588
793.00,47.716
794.00,47.789
795.00,47.829
796.00,48.008
797.00,47.858
798.00,47.955
799.00,48.030
800.00,48.057
801.00,48.030
802.00,48.000
803.00,48.160
804.00,48.176
805.00,48.255
806.00,48.208
807.00,48.275
808.00,48.470
809.00,48.404
810.00,48.523
811.00,48.472
812.00,48.659
813.00,48.662
814.00,48.639
815.00,48.809
816.00,48.759
817.00,48.814
818.00,48.716
819.00,48.866
820.00,48.917
821.00,48.859
822.00,48.940
823.00,49.044
824.00,49.092
825.00,48.942
826.00,48.892
827.00,49.140
828.00,48.966
829.00,49.215
830.00,49.086
831.00,51.432
832.00,51.495
833.00,51.542
834.00,51.511
835.00,51.572
836.00,51.599
837.00,51.627
838.00,51.592
839.00,51.680
840.00,51.727
841.00,51.742
842.00,51.784
843.00,51.769
844.00,51.814
845.00,51.693
846.00,51.762
847.00,51.674
848.00,51.788
849.00,51.876
850.00,51.848
851.00,51.891
852.00,51.807
853.00,51.891
854.00,51.884
855.00,51.895
856.00,51.798
857.00,51.851
858.00,51.934
859.00,51.901
860.00,51.936
861.00,51.885
862.00,51.941
863.00,51.890
864.00,52.038
865.00,51.948
866.00,51.953
867.00,51.926
868.00,52.047
869.00,52.045
870.00,51.975
871.00,52.022
872.00,52.068
873.00,52.053
874.00,51.963
875.00,52.047
876.00,52.004
877.00,52.112
878.00,52.016
879.00,52.198
880.00,52.132
881.00,52.138
882.00,52.016
883.00,52.145
884.00,52.081
885.00,52.093
886.00,52.001
887.00,52.064
888.00,52.127
889.00,52.083
890.00,51.977
891.00,52.040
892.00,52.078
893.00,52.052
894.00,51.977
895.00,52.051
896.00,52.108
897.00,52.066
898.00,51.982
899.00,51.916
900.00,51.967
901.00,51.936
902.00,51.907
903.00,52.042
904.00,52.114
905.00,52.053
906.00,51.920
907.00,51.991
908.00,52.086
909.00,52.007
910.00,51.950
911.00,51.855
912.00,51.931
913.00,51.829
914.00,51.866
915.00,51.996
916.00,52.149
917.00,52.030
918.00,51.912
919.00,51.985
920.00,52.126
921.00,51.932
922.00,51.824
923.00,51.913
924.00,52.080
925.00,51.877
926.00,51.807
927.00,51.837
928.00,52.027
929.00,51.845
930.00,51.803
931.00,51.795
932.00,51.914
933.00,51.751
934.00,51.873
935.00,51.814
936.00,51.878
937.00,51.731
938.00,51.655
939.00,51.741
940.00,51.823
941.00,51.718
942.00,51.611
943.00,51.671
944.00,51.774
945.00,51.680
946.00,51.620
947.00,51.662
948.00,51.633
949.00,51.631
950.00,51.544
951.00,51.617
952.00,51.608
953.00,51.595
954.00,51.468
955.00,51.514
956.00,51.502
957.00,51.480
958.00,51.402
959.00,51.422
960.00,51.409
961.00,51.399
962.00,51.365
963.00,51.369
964.00,51.401
965.00,51.386
966.00,51.355
967.00,51.341
968.00,51.368
969.00,51.313
970.00,51.317
971.00,51.356
972.00,51.368
973.00,51.363
974.00,51.389
975.00,51.420
976.00,51.342
977.00,51.380
978.00,51.398
979.00,51.363
980.00,51.390
981.00,51.381
982.00,51.389
983.00,51.324
984.00,51.374
985.00,51.348
986.00,51.373
987.00,51.343
988.00,51.340
989.00,51.339
990.00,51.307
991.00,51.289
992.00,51.307
993.00,51.310
994.00,51.280
995.00,51.271
996.00,51.274
997.00,51.257
998.00,51.266
999.00,51.258
1000.00,51.275
1001.00,51.237
1002.00,51.214
1003.00,51.237
1004.00,51.186
1005.00,51.186
1006.00,51.165
1007.00,51.195
1008.00,51.174
1009.00,51.144
1010.00,51.136
1011.00,51.129
1012.00,51.139
1013.00,51.119
1014.00,51.126
1015.00,51.086
1016.00,51.074
1017.00,51.060
1018.00,51.047
1019.00,51.053
1020.00,51.001
1021.00,51.028
1022.00,51.023
1023.00,50.978
1024.00,50.933
1025.00,50.960
1026.00,50.978
1027.00,50.937
1028.00,50.921
1029.00,50.918
1030.00,50.922
1031.00,50.878
1032.00,50.828
1033.00,50.852
1034.00,50.838
1035.00,50.788
1036.00,50.749
1037.00,50.757
1038.00,50.762
1039.00,50.724
1040.00,50.711
1041.00,50.660
1042.00,50.649
1043.00,50.649
1044.00,50.712
1045.00,50.670
1046.00,50.645
1047.00,50.664
1048.00,50.701
1049.00,50.706
1050.00,50.735
1051.00,50.727
1052.00,50.773
1053.00,50.770
1054.00,50.786
1055.00,50.782
1056.00,50.809
1057.00,50.807
1058.00,50.799
1059.00,50.779
1060.00,50.753
1061.00,50.768
1062.00,50.741
1063.00,50.746
1064.00,50.715
1065.00,50.745
1066.00,50.735
1067.00,50.730
1068.00,50.705
1069.00,50.731
1070.00,50.690
1071.00,50.693
1072.00,50.692
1073.00,50.688
1074.00,50.677
1075.00,50.654
1076.00,50.652
1077.00,50.660
1078.00,50.643
1079.00,50.621
1080.00,50.611
1081.00,50.604
1082.00,50.618
1083.00,50.592
1084.00,50.608
1085.00,50.594
1086.00,50.588
1087.00,50.584
1088.00,50.586
1089.00,50.553
1090.00,50.571
1091.00,50.556
1092.00,50.550
1093.00,50.527
1094.00,50.538
1095.00,50.514
1096.00,50.520
1097.00,50.500
1098.00,50.502
1099.00,50.472
1100.00,50.465
1101.00,50.448
1102.00,50.452
1103.00,50.434
1104.00,50.452
1105.00,50.419
1106.00,50.427
1107.00,50.402
1108.00,50.401
1109.00,50.383
1110.00,50.393
1111.00,50.365
1112.00,50.349
1113.00,50.340
1114.00,50.350
1115.00,50.351
1116.00,50.351
1117.00,50.317
1118.00,50.304
1119.00,50.282
1120.00,50.288
1121.00,50.310
1122.00,50.314
1123.00,50.262
1124.00,50.247
1125.00,50.244
1126.00,50.298
1127.00,50.276
1128.00,50.254
1129.00,50.214
1130.00,50.244
1131.00,50.228
1132.00,50.250
1133.00,50.225
1134.00,50.188
1135.00,50.114
1136.00,50.196
1137.00,50.199
1138.00,50.196
1139.00,50.197
1140.00,50.173
1141.00,50.148
1142.00,50.186
1143.00,50.204
1144.00,50.165
1145.00,50.145
1146.00,50.117
1147.00,50.101
1148.00,50.130
1149.00,50.133
1150.00,50.158
1151.00,50.173
1152.00,50.138
1153.00,50.115
1154.00,50.113
1155.00,50.112
1156.00,50.120
1157.00,50.114
1158.00,50.095
1159.00,50.101
1160.00,50.093
1161.00,50.104
1162.00,50.095
1163.00,50.100
1164.00,50.088
1165.00,50.082
1166.00,50.071
1167.00,50.079
1168.00,50.098
1169.00,50.081
1170.00,50.079
1171.00,50.055
1172.00,50.042
1173.00,50.040
1174.00,50.053
1175.00,50.050
1176.00,50.071
1177.00,50.029
1178.00,50.051
1179.00,50.076
1180.00,50.054
1181.00,50.062
1182.00,50.062
1183.00,50.056
1184.00,50.041
1185.00,50.059
1186.00,50.041
1187.00,50.058
1188.00,50.039
1189.00,50.039
1190.00,50.018
1191.00,50.023
1192.00,50.057
1193.00,50.055
1194.00,50.045
1195.00,50.018
1196.00,50.037
1197.00,50.043
1198.00,50.056
1199.00,50.033
1200.00,50.028
1201.00,50.028
1202.00,50.007
1203.00,50.021
1204.00,50.020
1205.00,50.029
1206.00,50.026
1207.00,50.023
1208.00,50.010
1209.00,50.048
1210.00,50.036
1211.00,50.028
1212.00,50.033
1213.00,49.991
1214.00,50.029
1215.00,50.007
1216.00,50.002
1217.00,49.998
1218.00,49.994
1219.00,50.012
1220.00,49.990
1221.00,50.020
1222.00,50.022
1223.00,50.047
1224.00,50.021
1225.00,50.007
1226.00,50.014
1227.00,50.005
1228.00,50.004
1229.00,50.022
1230.00,50.064
1231.00,50.039
1232.00,50.043
1233.00,50.054
1234.00,50.061
1235.00,50.040
1236.00,50.050
1237.00,50.042
1238.00,50.053
1239.00,50.044
1240.00,50.036
1241.00,50.042
1242.00,50.053
1243.00,50.067
1244.00,50.038
1245.00,50.069
1246.00,50.060
1247.00,50.065
1248.00,50.045
1249.00,50.037
1250.00,50.041
1251.00,50.041
1252.00,50.049
1253.00,50.049
1254.00,50.064
1255.00,50.037
1256.00,49.991
1257.00,49.996
1258.00,50.113
1259.00,50.126
1260.00,50.104
1261.00,50.094
1262.00,50.086
1263.00,50.083
1264.00,50.097
1265.00,50.099
1266.00,50.110
1267.00,50.118
1268.00,50.114
1269.00,50.121
1270.00,50.158
1271.00,50.152
1272.00,50.157
1273.00,50.169
1274.00,50.169
1275.00,50.164
1276.00,50.163
1277.00,50.173
1278.00,50.189
1279.00,50.178
1280.00,50.182
1281.00,50.169
1282.00,50.175
1283.00,50.187
1284.00,50.162
1285.00,50.152
1286.00,50.196
1287.00,50.177
1288.00,50.178
1289.00,50.182
1290.00,50.203
1291.00,50.209
1292.00,50.204
1293.00,50.202
1294.00,50.210
1295.00,50.231
1296.00,50.242
1297.00,50.239
1298.00,50.228
1299.00,50.213
1300.00,50.272
1301.00,50.252
1302.00,50.301
1303.00,50.289
1304.00,50.271
1305.00,50.302
1306.00,50.270
1307.00,50.264
1308.00,50.268
1309.00,50.315
1310.00,50.346
1311.00,50.304
1312.00,50.252
1313.00,50.302
1314.00,50.348
1315.00,50.341
1316.00,50.345
1317.00,50.363
1318.00,50.373
1319.00,50.380
1320.00,50.402
1321.00,50.453
1322.00,50.508
1323.00,50.472
1324.00,50.446
1325.00,50.480
1326.00,50.545
1327.00,50.489
1328.00,50.468
1329.00,50.427
1330.00,50.550
1331.00,50.478
1332.00,50.429
1333.00,50.496
1334.00,50.585
1335.00,50.516
1336.00,50.507
1337.00,50.587
1338.00,50.690
1339.00,50.728
1340.00,50.763
1341.00,50.848
1342.00,50.903
1343.00,50.948
1344.00,51.037
1345.00,51.092
1346.00,51.093
1347.00,51.082
1348.00,51.153
1349.00,51.166
1350.00,51.154
1351.00,51.061
1352.00,51.042
1353.00,51.117
1354.00,51.205
1355.00,51.187
1356.00,51.252
1357.00,51.268
1358.00,51.316
1359.00,50.758
1360.00,50.498
1361.00,50.428
1362.00,51.012
1363.00,51.746
1364.00,51.710
1365.00,51.570
1366.00,51.292
1367.00,51.072
1368.00,51.323
1369.00,51.480
1370.00,51.176
1371.00,51.236
1372.00,51.377
1373.00,51.326
1374.00,51.241
1375.00,51.142
1376.00,51.119
1377.00,51.114
1378.00,51.358
1379.00,51.020
1380.00,51.029
1381.00,51.028
1382.00,51.414
1383.00,51.537
1384.00,51.490
1385.00,51.403
1386.00,51.122
1387.00,51.121
1388.00,51.537
1389.00,51.636
1390.00,50.588
1391.00,50.931
1392.00,51.307
1393.00,51.798
1394.00,51.173
1395.00,51.190
1396.00,51.829
1397.00,51.943
1398.00,51.335
1399.00,51.333
1400.00,51.624
1401.00,51.293
1402.00,51.297
1403.00,51.086
1404.00,51.364
1405.00,51.316
1406.00,51.181
1407.00,51.291
1408.00,51.124
1409.00,51.274
1410.00,51.253
1411.00,51.147
1412.00,51.128
1413.00,50.955
1414.00,51.162
1415.00,51.364
1416.00,51.356
1417.00,51.485
1418.00,51.355
1419.00,51.252
1420.00,51.381
1421.00,51.495
1422.00,51.319
1423.00,51.284
1424.00,51.416
1425.00,51.410
1426.00,51.398
1427.00,51.400
1428.00,51.469
1429.00,51.501
1430.00,51.439
1431.00,51.401
1432.00,51.511
1433.00,51.525
1434.00,51.500
1435.00,51.583
1436.00,51.517
1437.00,51.510
1438.00,51.561
1439.00,51.602
1440.00,51.622
1441.00,51.615
1442.00,51.625
1443.00,51.689
1444.00,51.657
1445.00,51.615
1446.00,51.705
1447.00,51.749
1448.00,51.798
1449.00,51.750
1450.00,51.710
1451.00,51.793
1452.00,51.782
1453.00,51.809
1454.00,51.791
1455.00,51.826
1456.00,51.831
1457.00,51.816
1458.00,51.837
1459.00,51.854
1460.00,51.887
1461.00,51.919
1462.00,51.934
1463.00,51.934
1464.00,51.926
1465.00,51.971
1466.00,51.973
1467.00,51.991
1468.00,52.016
1469.00,52.003
1470.00,52.020
1471.00,52.039
1472.00,52.041
1473.00,52.080
1474.00,52.104
1475.00,52.104
1476.00,52.109
1477.00,52.123
1478.00,52.147
1479.00,52.166
1480.00,52.169
1481.00,52.176
1482.00,52.194
1483.00,52.202
1484.00,52.228
1485.00,52.235
1486.00,52.230
1487.00,52.286
1488.00,52.275
1489.00,52.277
1490.00,52.306
1491.00,52.317
1492.00,52.337
1493.00,52.321
1494.00,52.346
1495.00,52.340
1496.00,52.350
1497.00,52.351
1498.00,52.355
1499.00,52.386
1500.00,52.394
1501.00, 
1502.00, 
1503.00, 
1504.00, 
1505.00, 
1506.00, 
1507.00, 
1508.00, 
1509.00, 
1510.00, 
1511.00, 
1512.00, 
1513.00, 
1514.00, 
1515.00, 
1516.00, 
1517.00, 
1518.00, 
1519.00, 
1520.00, 
1521.00, 
1522.00, 
1523.00, 
1524.00, 
1525.00, 
1526.00, 
1527.00, 
1528.00, 
1529.00, 
1530.00, 
1531.00, 
1532.00, 
1533.00, 
1534.00, 
1535.00, 
1536.00, 
1537.00, 
1538.00, 
1539.00, 
1540.00, 
1541.00, 
1542.00, 
1543.00, 
1544.00, 
1545.00, 
1546.00, 
1547.00, 
1548.00, 
1549.00, 
1550.00, 
1551.00, 
1552.00, 
1553.00, 
1554.00, 
1555.00, 
1556.00, 
1557.00, 
1558.00, 
1559.00, 
1560.00, 
1561.00, 
1562.00, 
1563.00, 
1564.00, 
1565.00, 
1566.00, 
1567.00, 
1568.00, 
1569.00, 
1570.00, 
1571.00, 
1572.00, 
1573.00, 
1574.00, 
1575.00, 
1576.00, 
1577.00, 
1578.00, 
1579.00, 
1580.00, 
1581.00, 
1582.00, 
1583.00, 
1584.00, 
1585.00, 
1586.00, 
1587.00, 
1588.00, 
1589.00, 
1590.00, 
1591.00, 
1592.00, 
1593.00, 
1594.00, 
1595.00, 
1596.00, 
1597.00, 
1598.00, 
1599.00, 
1600.00, 
1601.00, 
1602.00, 
1603.00, 
1604.00, 
1605.00, 
1606.00, 
1607.00, 
1608.00, 
1609.00, 
1610.00, 
1611.00, 
1612.00, 
1613.00, 
1614.00, 
1615.00, 
1616.00, 
1617.00, 
1618.00, 
1619.00, 
1620.00, 
1621.00, 
1622.00, 
1623.00, 
1624.00, 
1625.00, 
1626.00, 
1627.00, 
1628.00, 
1629.00, 
1630.00, 
1631.00, 
1632.00, 
1633.00, 
1634.00, 
1635.00, 
1636.00, 
1637.00, 
1638.00, 
1639.00, 
1640.00, 
1641.00, 
1642.00, 
1643.00, 
1644.00, 
1645.00, 
1646.00, 
1647.00, 
1648.00, 
1649.00, 
1650.00, 
1651.00, 
1652.00, 
1653.00, 
1654.00, 
1655.00, 
1656.00, 
1657.00, 
1658.00, 
1659.00, 
1660.00, 
1661.00, 
1662.00, 
1663.00, 
1664.00, 
1665.00, 
1666.00, 
1667.00, 
1668.00, 
1669.00, 
1670.00, 
1671.00, 
1672.00, 
1673.00, 
1674.00, 
1675.00, 
1676.00, 
1677.00, 
1678.00, 
1679.00, 
1680.00, 
1681.00, 
1682.00, 
1683.00, 
1684.00, 
1685.00, 
1686.00, 
1687.00, 
1688.00, 
1689.00, 
1690.00, 
1691.00, 
1692.00, 
1693.00, 
1694.00, 
1695.00, 
1696.00, 
1697.00, 
1698.00, 
1699.00, 
1700.00, 
1701.00, 
1702.00, 
1703.00, 
1704.00, 
1705.00, 
1706.00, 
1707.00, 
1708.00, 
1709.00, 
1710.00, 
1711.00, 
1712.00, 
1713.00, 
1714.00, 
1715.00, 
1716.00, 
1717.00, 
1718.00, 
1719.00, 
1720.00, 
1721.00, 
1722.00, 
1723.00, 
1724.00, 
1725.00, 
1726.00, 
1727.00, 
1728.00, 
1729.00, 
1730.00, 
1731.00, 
1732.00, 
1733.00, 
1734.00, 
1735.00, 
1736.00, 
1737.00, 
1738.00, 
1739.00, 
1740.00, 
1741.00, 
1742.00, 
1743.00, 
1744.00, 
1745.00, 
1746.00, 
1747.00, 
1748.00, 
1749.00, 
1750.00, 
1751.00, 
1752.00, 
1753.00, 
1754.00, 
1755.00, 
1756.00, 
1757.00, 
1758.00, 
1759.00, 
1760.00, 
1761.00, 
1762.00, 
1763.00, 
1764.00, 
1765.00, 
1766.00, 
1767.00, 
1768.00, 
1769.00, 
1770.00, 
1771.00, 
1772.00, 
1773.00, 
1774.00, 
1775.00, 
1776.00, 
1777.00, 
1778.00, 
1779.00, 
1780.00, 
1781.00, 
1782.00, 
1783.00, 
1784.00, 
1785.00, 
1786.00, 
1787.00, 
1788.00, 
1789.00, 
1790.00, 
1791.00, 
1792.00, 
1793.00, 
1794.00, 
1795.00, 
1796.00, 
1797.00, 
1798.00, 
1799.00, 
1800.00, 
1801.00, 
1802.00, 
1803.00, 
1804.00, 
1805.00, 
1806.00, 
1807.00, 
1808.00, 
1809.00, 
1810.00, 
1811.00, 
1812.00, 
1813.00, 
1814.00, 
1815.00, 
1816.00, 
1817.00, 
1818.00, 
1819.00, 
1820.00, 
1821.00, 
1822.00, 
1823.00, 
1824.00, 
1825.00, 
1826.00, 
1827.00, 
1828.00, 
1829.00, 
1830.00, 
1831.00, 
1832.00, 
1833.00, 
1834.00, 
1835.00, 
1836.00, 
1837.00, 
1838.00, 
1839.00, 
1840.00, 
1841.00, 
1842.00, 
1843.00, 
1844.00, 
1845.00, 
1846.00, 
1847.00, 
1848.00, 
1849.00, 
1850.00, 
1851.00, 
1852.00, 
1853.00, 
1854.00, 
1855.00, 
1856.00, 
1857.00, 
1858.00, 
1859.00, 
1860.00, 
1861.00, 
1862.00, 
1863.00, 
1864.00, 
1865.00, 
1866.00, 
1867.00, 
1868.00, 
1869.00, 
1870.00, 
1871.00, 
1872.00, 
1873.00, 
1874.00, 
1875.00, 
1876.00, 
1877.00, 
1878.00, 
1879.00, 
1880.00, 
1881.00, 
1882.00, 
1883.00, 
1884.00, 
1885.00, 
1886.00, 
1887.00, 
1888.00, 
1889.00, 
1890.00, 
1891.00, 
1892.00, 
1893.00, 
1894.00, 
1895.00, 
1896.00, 
1897.00, 
1898.00, 
1899.00, 
1900.00, 
1901.00, 
1902.00, 
1903.00, 
1904.00, 
1905.00, 
1906.00, 
1907.00, 
1908.00, 
1909.00, 
1910.00, 
1911.00, 
1912.00, 
1913.00, 
1914.00, 
1915.00, 
1916.00, 
1917.00, 
1918.00, 
1919.00, 
1920.00, 
1921.00, 
1922.00, 
1923.00, 
1924.00, 
1925.00, 
1926.00, 
1927.00, 
1928.00, 
1929.00, 
1930.00, 
1931.00, 
1932.00, 
1933.00, 
1934.00, 
1935.00, 
1936.00, 
1937.00, 
1938.00, 
1939.00, 
1940.00, 
1941.00, 
1942.00, 
1943.00, 
1944.00, 
1945.00, 
1946.00, 
1947.00, 
1948.00, 
1949.00, 
1950.00, 
1951.00, 
1952.00, 
1953.00, 
1954.00, 
1955.00, 
1956.00, 
1957.00, 
1958.00, 
1959.00, 
1960.00, 
1961.00, 
1962.00, 
1963.00, 
1964.00, 
1965.00, 
1966.00, 
1967.00, 
1968.00, 
1969.00, 
1970.00, 
1971.00, 
1972.00, 
1973.00, 
1974.00, 
1975.00, 
1976.00, 
1977.00, 
1978.00, 
1979.00, 
1980.00, 
1981.00, 
1982.00, 
1983.00, 
1984.00, 
1985.00, 
1986.00, 
1987.00, 
1988.00, 
1989.00, 
1990.00, 
1991.00, 
1992.00, 
1993.00, 
1994.00, 
1995.00, 
1996.00, 
1997.00, 
1998.00, 
1999.00, 
2000.00, 
2001.00, 
2002.00, 
2003.00, 
2004.00, 
2005.00, 
2006.00, 
2007.00, 
2008.00, 
2009.00, 
2010.00, 
2011.00, 
2012.00, 
2013.00, 
2014.00, 
2015.00, 
2016.00, 
2017.00, 
2018.00, 
2019.00, 
2020.00, 
2021.00, 
2022.00, 
2023.00, 
2024.00, 
2025.00, 
2026.00, 
2027.00, 
2028.00, 
2029.00, 
2030.00, 
2031.00, 
2032.00, 
2033.00, 
2034.00, 
2035.00, 
2036.00, 
2037.00, 
2038.00, 
2039.00, 
2040.00, 
2041.00, 
2042.00, 
2043.00, 
2044.00, 
2045.00, 
2046.00, 
2047.00, 
2048.00, 
2049.00, 
2050.00, 
2051.00, 
2052.00, 
2053.00, 
2054.00, 
2055.00, 
2056.00, 
2057.00, 
2058.00, 
2059.00, 
2060.00, 
2061.00, 
2062.00, 
2063.00, 
2064.00, 
2065.00, 
2066.00, 
2067.00, 
2068.00, 
2069.00, 
2070.00, 
2071.00, 
2072.00, 
2073.00, 
2074.00, 
2075.00, 
2076.00, 
2077.00, 
2078.00, 
2079.00, 
2080.00, 
2081.00, 
2082.00, 
2083.00, 
2084.00, 
2085.00, 
2086.00, 
2087.00, 
2088.00, 
2089.00, 
2090.00, 
2091.00, 
2092.00, 
2093.00, 
2094.00, 
2095.00, 
2096.00, 
2097.00, 
2098.00, 
2099.00, 
2100.00, 
2101.00, 
2102.00, 
2103.00, 
2104.00, 
2105.00, 
2106.00, 
2107.00, 
2108.00, 
2109.00, 
2110.00, 
2111.00, 
2112.00, 
2113.00, 
2114.00, 
2115.00, 
2116.00, 
2117.00, 
2118.00, 
2119.00, 
2120.00, 
2121.00, 
2122.00, 
2123.00, 
2124.00, 
2125.00, 
2126.00, 
2127.00, 
2128.00, 
2129.00, 
2130.00, 
2131.00, 
2132.00, 
2133.00, 
2134.00, 
2135.00, 
2136.00, 
2137.00, 
2138.00, 
2139.00, 
2140.00, 
2141.00, 
2142.00, 
2143.00, 
2144.00, 
2145.00, 
2146.00, 
2147.00, 
2148.00, 
2149.00, 
2150.00, 
2151.00, 
2152.00, 
2153.00, 
2154.00, 
2155.00, 
2156.00, 
2157.00, 
2158.00, 
2159.00, 
2160.00, 
2161.00, 
2162.00, 
2163.00, 
2164.00, 
2165.00, 
2166.00, 
2167.00, 
2168.00, 
2169.00, 
2170.00, 
2171.00, 
2172.00, 
2173.00, 
2174.00, 
2175.00, 
2176.00, 
2177.00, 
2178.00, 
2179.00, 
2180.00, 
2181.00, 
2182.00, 
2183.00, 
2184.00, 
2185.00, 
2186.00, 
2187.00, 
2188.00, 
2189.00, 
2190.00, 
2191.00, 
2192.00, 
2193.00, 
2194.00, 
2195.00, 
2196.00, 
2197.00, 
2198.00, 
2199.00, 
2200.00, 
2201.00, 
2202.00, 
2203.00, 
2204.00, 
2205.00, 
2206.00, 
2207.00, 
2208.00, 
2209.00, 
2210.00, 
2211.00, 
2212.00, 
2213.00, 
2214.00, 
2215.00, 
2216.00, 
2217.00, 
2218.00, 
2219.00, 
2220.00, 
2221.00, 
2222.00, 
2223.00, 
2224.00, 
2225.00, 
2226.00, 
2227.00, 
2228.00, 
2229.00, 
2230.00, 
2231.00, 
2232.00, 
2233.00, 
2234.00, 
2235.00, 
2236.00, 
2237.00, 
2238.00, 
2239.00, 
2240.00, 
2241.00, 
2242.00, 
2243.00, 
2244.00, 
2245.00, 
2246.00, 
2247.00, 
2248.00, 
2249.00, 
2250.00, 
2251.00, 
2252.00, 
2253.00, 
2254.00, 
2255.00, 
2256.00, 
2257.00, 
2258.00, 
2259.00, 
2260.00, 
2261.00, 
2262.00, 
2263.00, 
2264.00, 
2265.00, 
2266.00, 
2267.00, 
2268.00, 
2269.00, 
2270.00, 
2271.00, 
2272.00, 
2273.00, 
2274.00, 
2275.00, 
2276.00, 
2277.00, 
2278.00, 
2279.00, 
2280.00, 
2281.00, 
2282.00, 
2283.00, 
2284.00, 
2285.00, 
2286.00, 
2287.00, 
2288.00, 
2289.00, 
2290.00, 
2291.00, 
2292.00, 
2293.00, 
2294.00, 
2295.00, 
2296.00, 
2297.00, 
2298.00, 
2299.00, 
2300.00, 
2301.00, 
2302.00, 
2303.00, 
2304.00, 
2305.00, 
2306.00, 
2307.00, 
2308.00, 
2309.00, 
2310.00, 
2311.00, 
2312.00, 
2313.00, 
2314.00, 
2315.00, 
2316.00, 
2317.00, 
2318.00, 
2319.00, 
2320.00, 
2321.00, 
2322.00, 
2323.00, 
2324.00, 
2325.00, 
2326.00, 
2327.00, 
2328.00, 
2329.00, 
2330.00, 
2331.00, 
2332.00, 
2333.00, 
2334.00, 
2335.00, 
2336.00, 
2337.00, 
2338.00, 
2339.00, 
2340.00, 
2341.00, 
2342.00, 
2343.00, 
2344.00, 
2345.00, 
2346.00, 
2347.00, 
2348.00, 
2349.00, 
2350.00, 
2351.00, 
2352.00, 
2353.00, 
2354.00, 
2355.00, 
2356.00, 
2357.00, 
2358.00, 
2359.00, 
2360.00, 
2361.00, 
2362.00, 
2363.00, 
2364.00, 
2365.00, 
2366.00, 
2367.00, 
2368.00, 
2369.00, 
2370.00, 
2371.00, 
2372.00, 
2373.00, 
2374.00, 
2375.00, 
2376.00, 
2377.00, 
2378.00, 
2379.00, 
2380.00, 
2381.00, 
2382.00, 
2383.00, 
2384.00, 
2385.00, 
2386.00, 
2387.00, 
2388.00, 
2389.00, 
2390.00, 
2391.00, 
2392.00, 
2393.00, 
2394.00, 
2395.00, 
2396.00, 
2397.00, 
2398.00, 
2399.00, 
2400.00, 
2401.00, 
2402.00, 
2403.00, 
2404.00, 
2405.00, 
2406.00, 
2407.00, 
2408.00, 
2409.00, 
2410.00, 
2411.00, 
2412.00, 
2413.00, 
2414.00, 
2415.00, 
2416.00, 
2417.00, 
2418.00, 
2419.00, 
2420.00, 
2421.00, 
2422.00, 
2423.00, 
2424.00, 
2425.00, 
2426.00, 
2427.00, 
2428.00, 
2429.00, 
2430.00, 
2431.00, 
2432.00, 
2433.00, 
2434.00, 
2435.00, 
2436.00, 
2437.00, 
2438.00, 
2439.00, 
2440.00, 
2441.00, 
2442.00, 
2443.00, 
2444.00, 
2445.00, 
2446.00, 
2447.00, 
2448.00, 
2449.00, 
2450.00, 
2451.00, 
2452.00, 
2453.00, 
2454.00, 
2455.00, 
2456.00, 
2457.00, 
2458.00, 
2459.00, 
2460.00, 
2461.00, 
2462.00, 
2463.00, 
2464.00, 
2465.00, 
2466.00, 
2467.00, 
2468.00, 
2469.00, 
2470.00, 
2471.00, 
2472.00, 
2473.00, 
2474.00, 
2475.00, 
2476.00, 
2477.00, 
2478.00, 
2479.00, 
2480.00, 
2481.00, 
2482.00, 
2483.00, 
2484.00, 
2485.00, 
2486.00, 
2487.00, 
2488.00, 
2489.00, 
2490.00, 
2491.00, 
2492.00, 
2493.00, 
2494.00, 
2495.00, 
2496.00, 
2497.00, 
2498.00, 
2499.00, 
2500.00, 
2501.00, 
2502.00, 
2503.00, 
2504.00, 
2505.00, 
2506.00, 
2507.00, 
2508.00, 
2509.00, 
2510.00, 
2511.00, 
2512.00, 
2513.00, 
2514.00, 
2515.00, 
2516.00, 
2517.00, 
2518.00, 
2519.00, 
2520.00, 
2521.00, 
2522.00, 
2523.00, 
2524.00, 
2525.00, 
2526.00, 
2527.00, 
2528.00, 
2529.00, 
2530.00, 
2531.00, 
2532.00, 
2533.00, 
2534.00, 
2535.00, 
2536.00, 
2537.00, 
2538.00, 
2539.00, 
2540.00, 
2541.00, 
2542.00, 
2543.00, 
2544.00, 
2545.00, 
2546.00, 
2547.00, 
2548.00, 
2549.00, 
2550.00, 
2551.00, 
2552.00, 
2553.00, 
2554.00, 
2555.00, 
2556.00, 
2557.00, 
2558.00, 
2559.00, 
2560.00, 
2561.00, 
2562.00, 
2563.00, 
2564.00, 
2565.00, 
2566.00, 
2567.00, 
2568.00, 
2569.00, 
2570.00, 
2571.00, 
2572.00, 
2573.00, 
2574.00, 
2575.00, 
2576.00, 
2577.00, 
2578.00, 
2579.00, 
2580.00, 
2581.00, 
2582.00, 
2583.00, 
2584.00, 
2585.00, 
2586.00, 
2587.00, 
2588.00, 
2589.00, 
2590.00, 
2591.00, 
2592.00, 
2593.00, 
2594.00, 
2595.00, 
2596.00, 
2597.00, 
2598.00, 
2599.00, 
2600.00, 
