"2bP2 - RawData"
"Wavelength nm.","T%"
200.00,-0.004
201.00,0.003
202.00,0.000
203.00,0.004
204.00,0.000
205.00,-0.001
206.00,-0.000
207.00,0.000
208.00,-0.001
209.00,0.003
210.00,0.001
211.00,0.002
212.00,0.001
213.00,0.001
214.00,-0.000
215.00,-0.001
216.00,0.001
217.00,0.001
218.00,0.003
219.00,0.000
220.00,0.004
221.00,0.003
222.00,0.001
223.00,0.001
224.00,0.001
225.00,-0.002
226.00,0.001
227.00,-0.001
228.00,-0.001
229.00,0.003
230.00,0.001
231.00,0.001
232.00,0.002
233.00,-0.000
234.00,-0.002
235.00,0.000
236.00,0.001
237.00,0.002
238.00,0.001
239.00,0.000
240.00,0.002
241.00,0.001
242.00,0.001
243.00,0.001
244.00,0.002
245.00,-0.001
246.00,-0.001
247.00,0.001
248.00,0.002
249.00,0.001
250.00,0.000
251.00,-0.001
252.00,0.000
253.00,0.001
254.00,0.000
255.00,0.001
256.00,-0.000
257.00,0.001
258.00,-0.001
259.00,-0.001
260.00,0.001
261.00,0.001
262.00,0.002
263.00,-0.001
264.00,-0.001
265.00,0.001
266.00,-0.001
267.00,0.001
268.00,0.001
269.00,0.000
270.00,0.000
271.00,-0.000
272.00,0.001
273.00,0.000
274.00,0.002
275.00,0.001
276.00,0.000
277.00,-0.000
278.00,0.001
279.00,0.000
280.00,0.001
281.00,0.002
282.00,-0.000
283.00,-0.000
284.00,0.001
285.00,-0.002
286.00,-0.001
287.00,-0.000
288.00,0.001
289.00,0.000
290.00,-0.000
291.00,-0.001
292.00,-0.001
293.00,0.001
294.00,0.000
295.00,-0.001
296.00,0.001
297.00,0.002
298.00,0.001
299.00,0.000
300.00,-0.000
301.00,0.002
302.00,0.004
303.00,0.003
304.00,0.006
305.00,0.013
306.00,0.018
307.00,0.027
308.00,0.039
309.00,0.060
310.00,0.083
311.00,0.107
312.00,0.148
313.00,0.195
314.00,0.260
315.00,0.334
316.00,0.417
317.00,0.521
318.00,0.644
319.00,0.780
320.00,0.944
321.00,1.118
322.00,1.314
323.00,1.538
324.00,1.768
325.00,2.013
326.00,2.242
327.00,2.528
328.00,2.797
329.00,3.087
330.00,3.377
331.00,3.653
332.00,3.975
333.00,4.269
334.00,4.557
335.00,4.891
336.00,5.172
337.00,5.470
338.00,5.779
339.00,6.019
340.00,6.301
341.00,6.554
342.00,6.788
343.00,7.038
344.00,7.281
345.00,7.476
346.00,7.661
347.00,7.811
348.00,8.018
349.00,8.155
350.00,8.321
351.00,8.426
352.00,8.537
353.00,8.642
354.00,8.766
355.00,8.862
356.00,8.923
357.00,8.995
358.00,9.080
359.00,9.151
360.00,9.237
361.00,9.246
362.00,9.291
363.00,9.313
364.00,9.330
365.00,9.333
366.00,9.342
367.00,9.346
368.00,9.339
369.00,9.347
370.00,9.335
371.00,9.317
372.00,9.280
373.00,9.268
374.00,9.265
375.00,9.175
376.00,9.158
377.00,9.082
378.00,9.050
379.00,8.986
380.00,8.959
381.00,8.931
382.00,8.894
383.00,8.861
384.00,8.846
385.00,8.830
386.00,8.780
387.00,8.798
388.00,8.784
389.00,8.768
390.00,8.757
391.00,8.740
392.00,8.726
393.00,8.700
394.00,8.691
395.00,8.661
396.00,8.628
397.00,8.625
398.00,8.603
399.00,8.597
400.00,8.569
401.00,8.547
402.00,8.552
403.00,8.548
404.00,8.517
405.00,8.495
406.00,8.487
407.00,8.471
408.00,8.445
409.00,8.422
410.00,8.398
411.00,8.394
412.00,8.392
413.00,8.388
414.00,8.373
415.00,8.364
416.00,8.383
417.00,8.374
418.00,8.389
419.00,8.437
420.00,8.443
421.00,8.408
422.00,8.422
423.00,8.453
424.00,8.469
425.00,8.492
426.00,8.510
427.00,8.529
428.00,8.568
429.00,8.591
430.00,8.634
431.00,8.669
432.00,8.684
433.00,8.726
434.00,8.781
435.00,8.823
436.00,8.866
437.00,8.902
438.00,8.960
439.00,9.010
440.00,9.063
441.00,9.110
442.00,9.173
443.00,9.223
444.00,9.294
445.00,9.352
446.00,9.432
447.00,9.498
448.00,9.587
449.00,9.658
450.00,9.696
451.00,9.796
452.00,9.874
453.00,9.958
454.00,10.055
455.00,10.137
456.00,10.238
457.00,10.330
458.00,10.416
459.00,10.524
460.00,10.646
461.00,10.739
462.00,10.828
463.00,10.937
464.00,11.043
465.00,11.162
466.00,11.266
467.00,11.384
468.00,11.463
469.00,11.566
470.00,11.681
471.00,11.788
472.00,11.892
473.00,11.994
474.00,12.109
475.00,12.225
476.00,12.324
477.00,12.431
478.00,12.563
479.00,12.727
480.00,12.835
481.00,12.973
482.00,13.081
483.00,13.230
484.00,13.342
485.00,13.532
486.00,13.648
487.00,13.805
488.00,13.945
489.00,14.099
490.00,14.236
491.00,14.375
492.00,14.507
493.00,14.700
494.00,14.828
495.00,14.848
496.00,15.016
497.00,15.134
498.00,15.259
499.00,15.427
500.00,15.547
501.00,15.662
502.00,15.820
503.00,15.969
504.00,16.062
505.00,16.222
506.00,16.334
507.00,16.448
508.00,16.596
509.00,16.755
510.00,16.887
511.00,16.987
512.00,17.145
513.00,17.307
514.00,17.434
515.00,17.590
516.00,17.708
517.00,17.799
518.00,17.954
519.00,18.031
520.00,18.142
521.00,18.283
522.00,18.380
523.00,18.468
524.00,18.602
525.00,18.704
526.00,18.829
527.00,18.897
528.00,19.036
529.00,19.197
530.00,19.337
531.00,19.392
532.00,19.513
533.00,19.625
534.00,19.751
535.00,19.835
536.00,19.913
537.00,20.012
538.00,20.111
539.00,20.161
540.00,20.306
541.00,20.406
542.00,20.452
543.00,20.530
544.00,20.643
545.00,20.724
546.00,20.770
547.00,20.878
548.00,20.994
549.00,21.061
550.00,21.142
551.00,21.257
552.00,21.335
553.00,21.405
554.00,21.494
555.00,21.557
556.00,21.615
557.00,21.704
558.00,21.734
559.00,21.855
560.00,21.955
561.00,21.964
562.00,22.048
563.00,22.152
564.00,22.183
565.00,22.268
566.00,22.299
567.00,22.383
568.00,22.440
569.00,22.518
570.00,22.558
571.00,22.636
572.00,22.675
573.00,22.682
574.00,22.764
575.00,22.800
576.00,22.839
577.00,22.882
578.00,22.987
579.00,23.053
580.00,23.104
581.00,23.260
582.00,23.281
583.00,23.283
584.00,23.447
585.00,23.509
586.00,23.608
587.00,23.667
588.00,23.694
589.00,23.708
590.00,23.812
591.00,23.844
592.00,23.855
593.00,23.928
594.00,24.010
595.00,24.103
596.00,24.178
597.00,24.227
598.00,24.274
599.00,24.317
600.00,24.428
601.00,24.496
602.00,24.540
603.00,24.594
604.00,24.634
605.00,24.717
606.00,24.762
607.00,24.834
608.00,24.868
609.00,24.972
610.00,25.161
611.00,25.137
612.00,25.153
613.00,25.256
614.00,25.312
615.00,25.391
616.00,25.508
617.00,25.557
618.00,25.586
619.00,25.657
620.00,25.717
621.00,25.850
622.00,25.909
623.00,25.996
624.00,26.110
625.00,26.229
626.00,26.300
627.00,26.366
628.00,26.457
629.00,26.510
630.00,26.602
631.00,26.682
632.00,26.849
633.00,26.925
634.00,27.031
635.00,27.168
636.00,27.223
637.00,27.427
638.00,27.506
639.00,27.568
640.00,27.592
641.00,27.774
642.00,27.896
643.00,28.029
644.00,28.186
645.00,28.249
646.00,28.460
647.00,28.582
648.00,28.659
649.00,28.792
650.00,28.852
651.00,29.058
652.00,29.208
653.00,29.282
654.00,29.399
655.00,29.638
656.00,29.904
657.00,29.868
658.00,30.073
659.00,30.212
660.00,30.329
661.00,30.416
662.00,30.604
663.00,30.750
664.00,30.969
665.00,31.203
666.00,31.081
667.00,31.377
668.00,31.505
669.00,31.750
670.00,32.014
671.00,31.940
672.00,32.161
673.00,32.309
674.00,32.496
675.00,32.722
676.00,32.897
677.00,33.129
678.00,33.013
679.00,33.217
680.00,33.468
681.00,33.724
682.00,33.768
683.00,33.911
684.00,34.180
685.00,34.337
686.00,34.363
687.00,34.539
688.00,34.753
689.00,34.876
690.00,35.128
691.00,35.491
692.00,35.321
693.00,35.498
694.00,35.735
695.00,35.928
696.00,36.042
697.00,36.236
698.00,36.431
699.00,36.694
700.00,36.825
701.00,36.936
702.00,37.122
703.00,37.422
704.00,37.516
705.00,37.601
706.00,37.737
707.00,37.887
708.00,38.002
709.00,38.409
710.00,38.788
711.00,38.506
712.00,38.657
713.00,38.900
714.00,39.018
715.00,39.227
716.00,39.262
717.00,39.511
718.00,39.737
719.00,39.691
720.00,39.969
721.00,44.189
722.00,44.256
723.00,44.408
724.00,44.468
725.00,44.608
726.00,44.713
727.00,44.895
728.00,45.006
729.00,45.074
730.00,45.227
731.00,45.243
732.00,45.455
733.00,45.570
734.00,45.720
735.00,45.821
736.00,45.911
737.00,46.067
738.00,46.097
739.00,46.306
740.00,46.340
741.00,46.524
742.00,46.680
743.00,46.627
744.00,46.755
745.00,46.905
746.00,46.970
747.00,47.024
748.00,47.066
749.00,47.208
750.00,47.260
751.00,47.427
752.00,47.408
753.00,47.463
754.00,47.581
755.00,47.689
756.00,47.755
757.00,47.774
758.00,47.941
759.00,48.010
760.00,48.081
761.00,48.181
762.00,48.194
763.00,48.259
764.00,48.375
765.00,48.462
766.00,48.519
767.00,48.626
768.00,48.717
769.00,48.703
770.00,48.868
771.00,48.864
772.00,48.937
773.00,48.995
774.00,49.052
775.00,49.143
776.00,49.137
777.00,49.294
778.00,49.340
779.00,49.424
780.00,49.418
781.00,49.439
782.00,49.506
783.00,49.547
784.00,49.631
785.00,49.630
786.00,49.719
787.00,49.673
788.00,49.800
789.00,49.852
790.00,49.804
791.00,50.008
792.00,49.882
793.00,49.927
794.00,50.005
795.00,50.000
796.00,50.018
797.00,50.051
798.00,50.170
799.00,50.149
800.00,50.099
801.00,50.168
802.00,50.175
803.00,50.186
804.00,50.183
805.00,50.231
806.00,50.225
807.00,50.278
808.00,50.302
809.00,50.287
810.00,50.356
811.00,50.382
812.00,50.497
813.00,50.404
814.00,50.467
815.00,50.490
816.00,50.347
817.00,50.461
818.00,50.420
819.00,50.560
820.00,50.444
821.00,50.413
822.00,50.456
823.00,50.575
824.00,50.582
825.00,50.554
826.00,50.551
827.00,50.565
828.00,50.670
829.00,50.623
830.00,50.664
831.00,53.010
832.00,52.992
833.00,53.005
834.00,53.032
835.00,53.015
836.00,53.049
837.00,53.029
838.00,53.053
839.00,53.042
840.00,53.009
841.00,53.052
842.00,53.039
843.00,53.055
844.00,53.073
845.00,53.034
846.00,53.079
847.00,53.033
848.00,53.112
849.00,53.031
850.00,53.016
851.00,52.992
852.00,53.037
853.00,52.978
854.00,52.999
855.00,52.943
856.00,52.977
857.00,52.988
858.00,52.964
859.00,52.899
860.00,52.945
861.00,52.982
862.00,52.891
863.00,52.944
864.00,52.919
865.00,52.959
866.00,52.969
867.00,52.920
868.00,52.935
869.00,52.946
870.00,52.952
871.00,52.950
872.00,52.956
873.00,52.948
874.00,52.979
875.00,52.939
876.00,52.988
877.00,52.967
878.00,52.962
879.00,52.948
880.00,52.944
881.00,52.934
882.00,52.976
883.00,52.946
884.00,52.902
885.00,52.929
886.00,52.958
887.00,52.937
888.00,52.898
889.00,52.901
890.00,52.902
891.00,52.875
892.00,52.849
893.00,52.852
894.00,52.866
895.00,52.784
896.00,52.801
897.00,52.799
898.00,52.766
899.00,52.772
900.00,52.764
901.00,52.744
902.00,52.760
903.00,52.736
904.00,52.754
905.00,52.747
906.00,52.727
907.00,52.723
908.00,52.685
909.00,52.699
910.00,52.668
911.00,52.675
912.00,52.661
913.00,52.619
914.00,52.629
915.00,52.604
916.00,52.587
917.00,52.596
918.00,52.570
919.00,52.546
920.00,52.506
921.00,52.539
922.00,52.525
923.00,52.505
924.00,52.460
925.00,52.471
926.00,52.385
927.00,52.512
928.00,52.427
929.00,52.433
930.00,52.423
931.00,52.408
932.00,52.379
933.00,52.404
934.00,52.389
935.00,52.324
936.00,52.340
937.00,52.304
938.00,52.299
939.00,52.275
940.00,52.258
941.00,52.275
942.00,52.235
943.00,52.226
944.00,52.206
945.00,52.185
946.00,52.187
947.00,52.160
948.00,52.144
949.00,52.127
950.00,52.135
951.00,52.102
952.00,52.078
953.00,52.053
954.00,52.054
955.00,52.024
956.00,51.996
957.00,52.024
958.00,51.973
959.00,51.926
960.00,51.936
961.00,51.923
962.00,51.917
963.00,51.878
964.00,51.876
965.00,51.879
966.00,51.874
967.00,51.854
968.00,51.830
969.00,51.875
970.00,51.851
971.00,51.871
972.00,51.850
973.00,51.881
974.00,51.896
975.00,51.848
976.00,51.864
977.00,51.867
978.00,51.904
979.00,51.855
980.00,51.892
981.00,51.872
982.00,51.870
983.00,51.885
984.00,51.859
985.00,51.886
986.00,51.855
987.00,51.880
988.00,51.836
989.00,51.839
990.00,51.821
991.00,51.816
992.00,51.817
993.00,51.793
994.00,51.805
995.00,51.768
996.00,51.768
997.00,51.754
998.00,51.738
999.00,51.769
1000.00,51.713
1001.00,51.708
1002.00,51.705
1003.00,51.694
1004.00,51.672
1005.00,51.635
1006.00,51.682
1007.00,51.633
1008.00,51.630
1009.00,51.622
1010.00,51.622
1011.00,51.598
1012.00,51.576
1013.00,51.586
1014.00,51.544
1015.00,51.561
1016.00,51.519
1017.00,51.520
1018.00,51.501
1019.00,51.469
1020.00,51.474
1021.00,51.452
1022.00,51.448
1023.00,51.409
1024.00,51.434
1025.00,51.377
1026.00,51.391
1027.00,51.365
1028.00,51.365
1029.00,51.356
1030.00,51.328
1031.00,51.349
1032.00,51.311
1033.00,51.302
1034.00,51.277
1035.00,51.243
1036.00,51.214
1037.00,51.202
1038.00,51.198
1039.00,51.145
1040.00,51.139
1041.00,51.106
1042.00,51.116
1043.00,51.099
1044.00,51.116
1045.00,51.099
1046.00,51.107
1047.00,51.118
1048.00,51.121
1049.00,51.134
1050.00,51.122
1051.00,51.165
1052.00,51.165
1053.00,51.165
1054.00,51.172
1055.00,51.190
1056.00,51.205
1057.00,51.205
1058.00,51.170
1059.00,51.169
1060.00,51.190
1061.00,51.167
1062.00,51.157
1063.00,51.173
1064.00,51.177
1065.00,51.162
1066.00,51.133
1067.00,51.119
1068.00,51.153
1069.00,51.105
1070.00,51.095
1071.00,51.089
1072.00,51.107
1073.00,51.081
1074.00,51.076
1075.00,51.073
1076.00,51.095
1077.00,51.051
1078.00,51.038
1079.00,51.051
1080.00,51.046
1081.00,51.029
1082.00,51.023
1083.00,51.006
1084.00,50.998
1085.00,51.002
1086.00,50.999
1087.00,51.005
1088.00,50.984
1089.00,50.984
1090.00,50.977
1091.00,50.971
1092.00,50.954
1093.00,50.945
1094.00,50.915
1095.00,50.914
1096.00,50.897
1097.00,50.893
1098.00,50.898
1099.00,50.887
1100.00,50.865
1101.00,50.867
1102.00,50.841
1103.00,50.861
1104.00,50.843
1105.00,50.823
1106.00,50.817
1107.00,50.819
1108.00,50.814
1109.00,50.814
1110.00,50.786
1111.00,50.783
1112.00,50.772
1113.00,50.750
1114.00,50.749
1115.00,50.756
1116.00,50.737
1117.00,50.723
1118.00,50.713
1119.00,50.711
1120.00,50.702
1121.00,50.694
1122.00,50.683
1123.00,50.685
1124.00,50.666
1125.00,50.667
1126.00,50.658
1127.00,50.664
1128.00,50.644
1129.00,50.642
1130.00,50.624
1131.00,50.653
1132.00,50.633
1133.00,50.646
1134.00,50.627
1135.00,50.612
1136.00,50.609
1137.00,50.614
1138.00,50.594
1139.00,50.605
1140.00,50.581
1141.00,50.579
1142.00,50.574
1143.00,50.567
1144.00,50.548
1145.00,50.555
1146.00,50.552
1147.00,50.577
1148.00,50.575
1149.00,50.571
1150.00,50.567
1151.00,50.561
1152.00,50.545
1153.00,50.544
1154.00,50.516
1155.00,50.526
1156.00,50.517
1157.00,50.517
1158.00,50.496
1159.00,50.511
1160.00,50.490
1161.00,50.494
1162.00,50.490
1163.00,50.487
1164.00,50.496
1165.00,50.488
1166.00,50.492
1167.00,50.479
1168.00,50.488
1169.00,50.481
1170.00,50.495
1171.00,50.459
1172.00,50.463
1173.00,50.453
1174.00,50.463
1175.00,50.464
1176.00,50.453
1177.00,50.443
1178.00,50.453
1179.00,50.465
1180.00,50.445
1181.00,50.462
1182.00,50.438
1183.00,50.437
1184.00,50.422
1185.00,50.437
1186.00,50.434
1187.00,50.421
1188.00,50.416
1189.00,50.418
1190.00,50.406
1191.00,50.411
1192.00,50.455
1193.00,50.440
1194.00,50.440
1195.00,50.412
1196.00,50.441
1197.00,50.453
1198.00,50.430
1199.00,50.424
1200.00,50.439
1201.00,50.436
1202.00,50.425
1203.00,50.432
1204.00,50.405
1205.00,50.429
1206.00,50.409
1207.00,50.425
1208.00,50.427
1209.00,50.417
1210.00,50.414
1211.00,50.412
1212.00,50.422
1213.00,50.382
1214.00,50.413
1215.00,50.382
1216.00,50.394
1217.00,50.401
1218.00,50.397
1219.00,50.435
1220.00,50.400
1221.00,50.411
1222.00,50.397
1223.00,50.413
1224.00,50.393
1225.00,50.391
1226.00,50.393
1227.00,50.379
1228.00,50.400
1229.00,50.406
1230.00,50.443
1231.00,50.417
1232.00,50.443
1233.00,50.445
1234.00,50.433
1235.00,50.433
1236.00,50.444
1237.00,50.416
1238.00,50.434
1239.00,50.454
1240.00,50.427
1241.00,50.452
1242.00,50.435
1243.00,50.454
1244.00,50.441
1245.00,50.461
1246.00,50.460
1247.00,50.446
1248.00,50.435
1249.00,50.461
1250.00,50.460
1251.00,50.456
1252.00,50.471
1253.00,50.441
1254.00,50.477
1255.00,50.462
1256.00,50.436
1257.00,50.421
1258.00,50.484
1259.00,50.472
1260.00,50.499
1261.00,50.492
1262.00,50.485
1263.00,50.489
1264.00,50.485
1265.00,50.497
1266.00,50.507
1267.00,50.515
1268.00,50.518
1269.00,50.542
1270.00,50.544
1271.00,50.526
1272.00,50.526
1273.00,50.554
1274.00,50.568
1275.00,50.557
1276.00,50.551
1277.00,50.566
1278.00,50.560
1279.00,50.556
1280.00,50.551
1281.00,50.560
1282.00,50.567
1283.00,50.589
1284.00,50.579
1285.00,50.574
1286.00,50.583
1287.00,50.580
1288.00,50.591
1289.00,50.571
1290.00,50.602
1291.00,50.604
1292.00,50.608
1293.00,50.610
1294.00,50.621
1295.00,50.631
1296.00,50.629
1297.00,50.629
1298.00,50.661
1299.00,50.631
1300.00,50.647
1301.00,50.624
1302.00,50.643
1303.00,50.625
1304.00,50.625
1305.00,50.685
1306.00,50.660
1307.00,50.671
1308.00,50.670
1309.00,50.680
1310.00,50.684
1311.00,50.666
1312.00,50.681
1313.00,50.715
1314.00,50.717
1315.00,50.724
1316.00,50.712
1317.00,50.740
1318.00,50.740
1319.00,50.735
1320.00,50.734
1321.00,50.916
1322.00,50.884
1323.00,50.869
1324.00,50.870
1325.00,50.869
1326.00,50.882
1327.00,50.872
1328.00,50.862
1329.00,50.861
1330.00,50.873
1331.00,50.860
1332.00,50.881
1333.00,50.873
1334.00,50.902
1335.00,50.919
1336.00,50.930
1337.00,50.967
1338.00,51.028
1339.00,51.056
1340.00,51.128
1341.00,51.191
1342.00,51.250
1343.00,51.297
1344.00,51.342
1345.00,51.397
1346.00,51.448
1347.00,51.458
1348.00,51.468
1349.00,51.514
1350.00,51.514
1351.00,51.535
1352.00,51.546
1353.00,51.428
1354.00,51.553
1355.00,51.499
1356.00,51.587
1357.00,51.563
1358.00,51.614
1359.00,51.498
1360.00,51.594
1361.00,51.575
1362.00,51.589
1363.00,51.608
1364.00,51.605
1365.00,51.614
1366.00,51.590
1367.00,51.585
1368.00,51.615
1369.00,51.575
1370.00,51.573
1371.00,51.560
1372.00,51.548
1373.00,51.559
1374.00,51.596
1375.00,51.546
1376.00,51.551
1377.00,51.536
1378.00,51.609
1379.00,51.573
1380.00,51.565
1381.00,51.577
1382.00,51.537
1383.00,51.554
1384.00,51.512
1385.00,51.535
1386.00,51.564
1387.00,51.539
1388.00,51.494
1389.00,51.571
1390.00,51.533
1391.00,51.585
1392.00,51.517
1393.00,51.537
1394.00,51.527
1395.00,51.512
1396.00,51.508
1397.00,51.572
1398.00,51.596
1399.00,51.534
1400.00,51.544
1401.00,51.547
1402.00,51.631
1403.00,51.528
1404.00,51.605
1405.00,51.555
1406.00,51.659
1407.00,51.590
1408.00,51.592
1409.00,51.610
1410.00,51.633
1411.00,51.584
1412.00,51.663
1413.00,51.602
1414.00,51.593
1415.00,51.637
1416.00,51.652
1417.00,51.682
1418.00,51.650
1419.00,51.654
1420.00,51.694
1421.00,51.724
1422.00,51.708
1423.00,51.742
1424.00,51.720
1425.00,51.754
1426.00,51.773
1427.00,51.765
1428.00,51.769
1429.00,51.793
1430.00,51.794
1431.00,51.838
1432.00,51.840
1433.00,51.846
1434.00,51.861
1435.00,51.923
1436.00,51.897
1437.00,51.898
1438.00,51.909
1439.00,51.936
1440.00,51.954
1441.00,51.953
1442.00,51.976
1443.00,52.004
1444.00,52.044
1445.00,52.013
1446.00,52.032
1447.00,52.061
1448.00,52.100
1449.00,52.092
1450.00,52.100
1451.00,52.116
1452.00,52.153
1453.00,52.140
1454.00,52.161
1455.00,52.181
1456.00,52.218
1457.00,52.187
1458.00,52.218
1459.00,52.230
1460.00,52.248
1461.00,52.249
1462.00,52.297
1463.00,52.304
1464.00,52.316
1465.00,52.309
1466.00,52.318
1467.00,52.349
1468.00,52.374
1469.00,52.367
1470.00,52.398
1471.00,52.397
1472.00,52.396
1473.00,52.418
1474.00,52.438
1475.00,52.453
1476.00,52.473
1477.00,52.456
1478.00,52.491
1479.00,52.486
1480.00,52.491
1481.00,52.501
1482.00,52.532
1483.00,52.545
1484.00,52.570
1485.00,52.584
1486.00,52.593
1487.00,52.621
1488.00,52.630
1489.00,52.633
1490.00,52.645
1491.00,52.657
1492.00,52.690
1493.00,52.641
1494.00,52.687
1495.00,52.671
1496.00,52.686
1497.00,52.697
1498.00,52.701
1499.00,52.723
1500.00,52.735
1501.00, 
1502.00, 
1503.00, 
1504.00, 
1505.00, 
1506.00, 
1507.00, 
1508.00, 
1509.00, 
1510.00, 
1511.00, 
1512.00, 
1513.00, 
1514.00, 
1515.00, 
1516.00, 
1517.00, 
1518.00, 
1519.00, 
1520.00, 
1521.00, 
1522.00, 
1523.00, 
1524.00, 
1525.00, 
1526.00, 
1527.00, 
1528.00, 
1529.00, 
1530.00, 
1531.00, 
1532.00, 
1533.00, 
1534.00, 
1535.00, 
1536.00, 
1537.00, 
1538.00, 
1539.00, 
1540.00, 
1541.00, 
1542.00, 
1543.00, 
1544.00, 
1545.00, 
1546.00, 
1547.00, 
1548.00, 
1549.00, 
1550.00, 
1551.00, 
1552.00, 
1553.00, 
1554.00, 
1555.00, 
1556.00, 
1557.00, 
1558.00, 
1559.00, 
1560.00, 
1561.00, 
1562.00, 
1563.00, 
1564.00, 
1565.00, 
1566.00, 
1567.00, 
1568.00, 
1569.00, 
1570.00, 
1571.00, 
1572.00, 
1573.00, 
1574.00, 
1575.00, 
1576.00, 
1577.00, 
1578.00, 
1579.00, 
1580.00, 
1581.00, 
1582.00, 
1583.00, 
1584.00, 
1585.00, 
1586.00, 
1587.00, 
1588.00, 
1589.00, 
1590.00, 
1591.00, 
1592.00, 
1593.00, 
1594.00, 
1595.00, 
1596.00, 
1597.00, 
1598.00, 
1599.00, 
1600.00, 
1601.00, 
1602.00, 
1603.00, 
1604.00, 
1605.00, 
1606.00, 
1607.00, 
1608.00, 
1609.00, 
1610.00, 
1611.00, 
1612.00, 
1613.00, 
1614.00, 
1615.00, 
1616.00, 
1617.00, 
1618.00, 
1619.00, 
1620.00, 
1621.00, 
1622.00, 
1623.00, 
1624.00, 
1625.00, 
1626.00, 
1627.00, 
1628.00, 
1629.00, 
1630.00, 
1631.00, 
1632.00, 
1633.00, 
1634.00, 
1635.00, 
1636.00, 
1637.00, 
1638.00, 
1639.00, 
1640.00, 
1641.00, 
1642.00, 
1643.00, 
1644.00, 
1645.00, 
1646.00, 
1647.00, 
1648.00, 
1649.00, 
1650.00, 
1651.00, 
1652.00, 
1653.00, 
1654.00, 
1655.00, 
1656.00, 
1657.00, 
1658.00, 
1659.00, 
1660.00, 
1661.00, 
1662.00, 
1663.00, 
1664.00, 
1665.00, 
1666.00, 
1667.00, 
1668.00, 
1669.00, 
1670.00, 
1671.00, 
1672.00, 
1673.00, 
1674.00, 
1675.00, 
1676.00, 
1677.00, 
1678.00, 
1679.00, 
1680.00, 
1681.00, 
1682.00, 
1683.00, 
1684.00, 
1685.00, 
1686.00, 
1687.00, 
1688.00, 
1689.00, 
1690.00, 
1691.00, 
1692.00, 
1693.00, 
1694.00, 
1695.00, 
1696.00, 
1697.00, 
1698.00, 
1699.00, 
1700.00, 
1701.00, 
1702.00, 
1703.00, 
1704.00, 
1705.00, 
1706.00, 
1707.00, 
1708.00, 
1709.00, 
1710.00, 
1711.00, 
1712.00, 
1713.00, 
1714.00, 
1715.00, 
1716.00, 
1717.00, 
1718.00, 
1719.00, 
1720.00, 
1721.00, 
1722.00, 
1723.00, 
1724.00, 
1725.00, 
1726.00, 
1727.00, 
1728.00, 
1729.00, 
1730.00, 
1731.00, 
1732.00, 
1733.00, 
1734.00, 
1735.00, 
1736.00, 
1737.00, 
1738.00, 
1739.00, 
1740.00, 
1741.00, 
1742.00, 
1743.00, 
1744.00, 
1745.00, 
1746.00, 
1747.00, 
1748.00, 
1749.00, 
1750.00, 
1751.00, 
1752.00, 
1753.00, 
1754.00, 
1755.00, 
1756.00, 
1757.00, 
1758.00, 
1759.00, 
1760.00, 
1761.00, 
1762.00, 
1763.00, 
1764.00, 
1765.00, 
1766.00, 
1767.00, 
1768.00, 
1769.00, 
1770.00, 
1771.00, 
1772.00, 
1773.00, 
1774.00, 
1775.00, 
1776.00, 
1777.00, 
1778.00, 
1779.00, 
1780.00, 
1781.00, 
1782.00, 
1783.00, 
1784.00, 
1785.00, 
1786.00, 
1787.00, 
1788.00, 
1789.00, 
1790.00, 
1791.00, 
1792.00, 
1793.00, 
1794.00, 
1795.00, 
1796.00, 
1797.00, 
1798.00, 
1799.00, 
1800.00, 
1801.00, 
1802.00, 
1803.00, 
1804.00, 
1805.00, 
1806.00, 
1807.00, 
1808.00, 
1809.00, 
1810.00, 
1811.00, 
1812.00, 
1813.00, 
1814.00, 
1815.00, 
1816.00, 
1817.00, 
1818.00, 
1819.00, 
1820.00, 
1821.00, 
1822.00, 
1823.00, 
1824.00, 
1825.00, 
1826.00, 
1827.00, 
1828.00, 
1829.00, 
1830.00, 
1831.00, 
1832.00, 
1833.00, 
1834.00, 
1835.00, 
1836.00, 
1837.00, 
1838.00, 
1839.00, 
1840.00, 
1841.00, 
1842.00, 
1843.00, 
1844.00, 
1845.00, 
1846.00, 
1847.00, 
1848.00, 
1849.00, 
1850.00, 
1851.00, 
1852.00, 
1853.00, 
1854.00, 
1855.00, 
1856.00, 
1857.00, 
1858.00, 
1859.00, 
1860.00, 
1861.00, 
1862.00, 
1863.00, 
1864.00, 
1865.00, 
1866.00, 
1867.00, 
1868.00, 
1869.00, 
1870.00, 
1871.00, 
1872.00, 
1873.00, 
1874.00, 
1875.00, 
1876.00, 
1877.00, 
1878.00, 
1879.00, 
1880.00, 
1881.00, 
1882.00, 
1883.00, 
1884.00, 
1885.00, 
1886.00, 
1887.00, 
1888.00, 
1889.00, 
1890.00, 
1891.00, 
1892.00, 
1893.00, 
1894.00, 
1895.00, 
1896.00, 
1897.00, 
1898.00, 
1899.00, 
1900.00, 
1901.00, 
1902.00, 
1903.00, 
1904.00, 
1905.00, 
1906.00, 
1907.00, 
1908.00, 
1909.00, 
1910.00, 
1911.00, 
1912.00, 
1913.00, 
1914.00, 
1915.00, 
1916.00, 
1917.00, 
1918.00, 
1919.00, 
1920.00, 
1921.00, 
1922.00, 
1923.00, 
1924.00, 
1925.00, 
1926.00, 
1927.00, 
1928.00, 
1929.00, 
1930.00, 
1931.00, 
1932.00, 
1933.00, 
1934.00, 
1935.00, 
1936.00, 
1937.00, 
1938.00, 
1939.00, 
1940.00, 
1941.00, 
1942.00, 
1943.00, 
1944.00, 
1945.00, 
1946.00, 
1947.00, 
1948.00, 
1949.00, 
1950.00, 
1951.00, 
1952.00, 
1953.00, 
1954.00, 
1955.00, 
1956.00, 
1957.00, 
1958.00, 
1959.00, 
1960.00, 
1961.00, 
1962.00, 
1963.00, 
1964.00, 
1965.00, 
1966.00, 
1967.00, 
1968.00, 
1969.00, 
1970.00, 
1971.00, 
1972.00, 
1973.00, 
1974.00, 
1975.00, 
1976.00, 
1977.00, 
1978.00, 
1979.00, 
1980.00, 
1981.00, 
1982.00, 
1983.00, 
1984.00, 
1985.00, 
1986.00, 
1987.00, 
1988.00, 
1989.00, 
1990.00, 
1991.00, 
1992.00, 
1993.00, 
1994.00, 
1995.00, 
1996.00, 
1997.00, 
1998.00, 
1999.00, 
2000.00, 
2001.00, 
2002.00, 
2003.00, 
2004.00, 
2005.00, 
2006.00, 
2007.00, 
2008.00, 
2009.00, 
2010.00, 
2011.00, 
2012.00, 
2013.00, 
2014.00, 
2015.00, 
2016.00, 
2017.00, 
2018.00, 
2019.00, 
2020.00, 
2021.00, 
2022.00, 
2023.00, 
2024.00, 
2025.00, 
2026.00, 
2027.00, 
2028.00, 
2029.00, 
2030.00, 
2031.00, 
2032.00, 
2033.00, 
2034.00, 
2035.00, 
2036.00, 
2037.00, 
2038.00, 
2039.00, 
2040.00, 
2041.00, 
2042.00, 
2043.00, 
2044.00, 
2045.00, 
2046.00, 
2047.00, 
2048.00, 
2049.00, 
2050.00, 
2051.00, 
2052.00, 
2053.00, 
2054.00, 
2055.00, 
2056.00, 
2057.00, 
2058.00, 
2059.00, 
2060.00, 
2061.00, 
2062.00, 
2063.00, 
2064.00, 
2065.00, 
2066.00, 
2067.00, 
2068.00, 
2069.00, 
2070.00, 
2071.00, 
2072.00, 
2073.00, 
2074.00, 
2075.00, 
2076.00, 
2077.00, 
2078.00, 
2079.00, 
2080.00, 
2081.00, 
2082.00, 
2083.00, 
2084.00, 
2085.00, 
2086.00, 
2087.00, 
2088.00, 
2089.00, 
2090.00, 
2091.00, 
2092.00, 
2093.00, 
2094.00, 
2095.00, 
2096.00, 
2097.00, 
2098.00, 
2099.00, 
2100.00, 
2101.00, 
2102.00, 
2103.00, 
2104.00, 
2105.00, 
2106.00, 
2107.00, 
2108.00, 
2109.00, 
2110.00, 
2111.00, 
2112.00, 
2113.00, 
2114.00, 
2115.00, 
2116.00, 
2117.00, 
2118.00, 
2119.00, 
2120.00, 
2121.00, 
2122.00, 
2123.00, 
2124.00, 
2125.00, 
2126.00, 
2127.00, 
2128.00, 
2129.00, 
2130.00, 
2131.00, 
2132.00, 
2133.00, 
2134.00, 
2135.00, 
2136.00, 
2137.00, 
2138.00, 
2139.00, 
2140.00, 
2141.00, 
2142.00, 
2143.00, 
2144.00, 
2145.00, 
2146.00, 
2147.00, 
2148.00, 
2149.00, 
2150.00, 
2151.00, 
2152.00, 
2153.00, 
2154.00, 
2155.00, 
2156.00, 
2157.00, 
2158.00, 
2159.00, 
2160.00, 
2161.00, 
2162.00, 
2163.00, 
2164.00, 
2165.00, 
2166.00, 
2167.00, 
2168.00, 
2169.00, 
2170.00, 
2171.00, 
2172.00, 
2173.00, 
2174.00, 
2175.00, 
2176.00, 
2177.00, 
2178.00, 
2179.00, 
2180.00, 
2181.00, 
2182.00, 
2183.00, 
2184.00, 
2185.00, 
2186.00, 
2187.00, 
2188.00, 
2189.00, 
2190.00, 
2191.00, 
2192.00, 
2193.00, 
2194.00, 
2195.00, 
2196.00, 
2197.00, 
2198.00, 
2199.00, 
2200.00, 
2201.00, 
2202.00, 
2203.00, 
2204.00, 
2205.00, 
2206.00, 
2207.00, 
2208.00, 
2209.00, 
2210.00, 
2211.00, 
2212.00, 
2213.00, 
2214.00, 
2215.00, 
2216.00, 
2217.00, 
2218.00, 
2219.00, 
2220.00, 
2221.00, 
2222.00, 
2223.00, 
2224.00, 
2225.00, 
2226.00, 
2227.00, 
2228.00, 
2229.00, 
2230.00, 
2231.00, 
2232.00, 
2233.00, 
2234.00, 
2235.00, 
2236.00, 
2237.00, 
2238.00, 
2239.00, 
2240.00, 
2241.00, 
2242.00, 
2243.00, 
2244.00, 
2245.00, 
2246.00, 
2247.00, 
2248.00, 
2249.00, 
2250.00, 
2251.00, 
2252.00, 
2253.00, 
2254.00, 
2255.00, 
2256.00, 
2257.00, 
2258.00, 
2259.00, 
2260.00, 
2261.00, 
2262.00, 
2263.00, 
2264.00, 
2265.00, 
2266.00, 
2267.00, 
2268.00, 
2269.00, 
2270.00, 
2271.00, 
2272.00, 
2273.00, 
2274.00, 
2275.00, 
2276.00, 
2277.00, 
2278.00, 
2279.00, 
2280.00, 
2281.00, 
2282.00, 
2283.00, 
2284.00, 
2285.00, 
2286.00, 
2287.00, 
2288.00, 
2289.00, 
2290.00, 
2291.00, 
2292.00, 
2293.00, 
2294.00, 
2295.00, 
2296.00, 
2297.00, 
2298.00, 
2299.00, 
2300.00, 
2301.00, 
2302.00, 
2303.00, 
2304.00, 
2305.00, 
2306.00, 
2307.00, 
2308.00, 
2309.00, 
2310.00, 
2311.00, 
2312.00, 
2313.00, 
2314.00, 
2315.00, 
2316.00, 
2317.00, 
2318.00, 
2319.00, 
2320.00, 
2321.00, 
2322.00, 
2323.00, 
2324.00, 
2325.00, 
2326.00, 
2327.00, 
2328.00, 
2329.00, 
2330.00, 
2331.00, 
2332.00, 
2333.00, 
2334.00, 
2335.00, 
2336.00, 
2337.00, 
2338.00, 
2339.00, 
2340.00, 
2341.00, 
2342.00, 
2343.00, 
2344.00, 
2345.00, 
2346.00, 
2347.00, 
2348.00, 
2349.00, 
2350.00, 
2351.00, 
2352.00, 
2353.00, 
2354.00, 
2355.00, 
2356.00, 
2357.00, 
2358.00, 
2359.00, 
2360.00, 
2361.00, 
2362.00, 
2363.00, 
2364.00, 
2365.00, 
2366.00, 
2367.00, 
2368.00, 
2369.00, 
2370.00, 
2371.00, 
2372.00, 
2373.00, 
2374.00, 
2375.00, 
2376.00, 
2377.00, 
2378.00, 
2379.00, 
2380.00, 
2381.00, 
2382.00, 
2383.00, 
2384.00, 
2385.00, 
2386.00, 
2387.00, 
2388.00, 
2389.00, 
2390.00, 
2391.00, 
2392.00, 
2393.00, 
2394.00, 
2395.00, 
2396.00, 
2397.00, 
2398.00, 
2399.00, 
2400.00, 
2401.00, 
2402.00, 
2403.00, 
2404.00, 
2405.00, 
2406.00, 
2407.00, 
2408.00, 
2409.00, 
2410.00, 
2411.00, 
2412.00, 
2413.00, 
2414.00, 
2415.00, 
2416.00, 
2417.00, 
2418.00, 
2419.00, 
2420.00, 
2421.00, 
2422.00, 
2423.00, 
2424.00, 
2425.00, 
2426.00, 
2427.00, 
2428.00, 
2429.00, 
2430.00, 
2431.00, 
2432.00, 
2433.00, 
2434.00, 
2435.00, 
2436.00, 
2437.00, 
2438.00, 
2439.00, 
2440.00, 
2441.00, 
2442.00, 
2443.00, 
2444.00, 
2445.00, 
2446.00, 
2447.00, 
2448.00, 
2449.00, 
2450.00, 
2451.00, 
2452.00, 
2453.00, 
2454.00, 
2455.00, 
2456.00, 
2457.00, 
2458.00, 
2459.00, 
2460.00, 
2461.00, 
2462.00, 
2463.00, 
2464.00, 
2465.00, 
2466.00, 
2467.00, 
2468.00, 
2469.00, 
2470.00, 
2471.00, 
2472.00, 
2473.00, 
2474.00, 
2475.00, 
2476.00, 
2477.00, 
2478.00, 
2479.00, 
2480.00, 
2481.00, 
2482.00, 
2483.00, 
2484.00, 
2485.00, 
2486.00, 
2487.00, 
2488.00, 
2489.00, 
2490.00, 
2491.00, 
2492.00, 
2493.00, 
2494.00, 
2495.00, 
2496.00, 
2497.00, 
2498.00, 
2499.00, 
2500.00, 
2501.00, 
2502.00, 
2503.00, 
2504.00, 
2505.00, 
2506.00, 
2507.00, 
2508.00, 
2509.00, 
2510.00, 
2511.00, 
2512.00, 
2513.00, 
2514.00, 
2515.00, 
2516.00, 
2517.00, 
2518.00, 
2519.00, 
2520.00, 
2521.00, 
2522.00, 
2523.00, 
2524.00, 
2525.00, 
2526.00, 
2527.00, 
2528.00, 
2529.00, 
2530.00, 
2531.00, 
2532.00, 
2533.00, 
2534.00, 
2535.00, 
2536.00, 
2537.00, 
2538.00, 
2539.00, 
2540.00, 
2541.00, 
2542.00, 
2543.00, 
2544.00, 
2545.00, 
2546.00, 
2547.00, 
2548.00, 
2549.00, 
2550.00, 
2551.00, 
2552.00, 
2553.00, 
2554.00, 
2555.00, 
2556.00, 
2557.00, 
2558.00, 
2559.00, 
2560.00, 
2561.00, 
2562.00, 
2563.00, 
2564.00, 
2565.00, 
2566.00, 
2567.00, 
2568.00, 
2569.00, 
2570.00, 
2571.00, 
2572.00, 
2573.00, 
2574.00, 
2575.00, 
2576.00, 
2577.00, 
2578.00, 
2579.00, 
2580.00, 
2581.00, 
2582.00, 
2583.00, 
2584.00, 
2585.00, 
2586.00, 
2587.00, 
2588.00, 
2589.00, 
2590.00, 
2591.00, 
2592.00, 
2593.00, 
2594.00, 
2595.00, 
2596.00, 
2597.00, 
2598.00, 
2599.00, 
2600.00, 
